Timestamp,AccX,AccY,AccZ,GyrX,GyrY,GyrZ
296.6953,-0.6415683627128601,0.4080817401409149,9.68199634552002,-0.013825586996972561,-0.03002435527741909,0.05521782860159874
296.7119,-0.6578872203826904,0.37769418954849243,9.698211669921875,-0.012992093339562416,-0.03004743903875351,0.05579856410622597
296.7286,-0.6468705534934998,0.34158703684806824,9.687843322753906,-0.01442595012485981,-0.025920335203409195,0.05001116916537285
296.7453,-0.621951162815094,0.3491789996623993,9.662077903747559,-0.015063395723700523,-0.028766948729753494,0.043472591787576675
296.7619,-0.6124151945114136,0.3500722050666809,9.681537628173828,-0.01636621728539467,-0.030777908861637115,0.04276975989341736
296.7786,-0.6591116786003113,0.33787083625793457,9.662298202514648,-0.015211078338325024,-0.03183358907699585,0.0420290008187294
296.7953,-0.6763082146644592,0.33518388867378235,9.686497688293457,-0.01551212090998888,-0.030603306367993355,0.04191277548670769
296.8119,-0.659472644329071,0.3204071819782257,9.697444915771484,-0.013602242805063725,-0.02645006589591503,0.042520295828580856
296.8286,-0.6586999893188477,0.31391024589538574,9.682908058166504,-0.015274498611688614,-0.026483310386538506,0.03779101371765137
296.8453,-0.6700909733772278,0.3099231421947479,9.687060356140137,-0.014699315652251244,-0.02829524502158165,0.03239618241786957
296.8619,-0.6972899436950684,0.26892101764678955,9.691411018371582,-0.012718367390334606,-0.027029233053326607,0.03054366074502468
296.8786,-0.6923866868019104,0.278694212436676,9.672762870788574,-0.011940388940274715,-0.02506701834499836,0.030993493273854256
296.8953,-0.6840946078300476,0.2825402021408081,9.673151969909668,-0.013598517514765263,-0.024841932579874992,0.029576001688838005
296.9119,-0.710527241230011,0.2859778106212616,9.667767524719238,-0.013633694499731064,-0.027323096990585327,0.02608722634613514
296.9286,-0.6997895240783691,0.27778390049934387,9.66058349609375,-0.014527274295687675,-0.028096213936805725,0.02818499132990837
296.9453,-0.7111418843269348,0.29101788997650146,9.65914249420166,-0.015044446103274822,-0.029072506353259087,0.02797430008649826
296.9619,-0.7040954828262329,0.3029676377773285,9.664508819580078,-0.016140317544341087,-0.03388175368309021,0.025737347081303596
296.9786,-0.6872509717941284,0.33285021781921387,9.680684089660645,-0.015578809194266796,-0.03614719957113266,0.028837531805038452
296.9953,-0.6564096212387085,0.32237711548805237,9.709789276123047,-0.013009123504161835,-0.03286605328321457,0.03693264722824097
297.0119,-0.6271153092384338,0.2820333242416382,9.70763874053955,-0.010552927851676941,-0.02911367453634739,0.04246809706091881
297.0286,-0.5870455503463745,0.26324617862701416,9.6844482421875,-0.011053049005568027,-0.02939431369304657,0.038365330547094345
297.0453,-0.5932775139808655,0.2760327160358429,9.684581756591797,-0.0098389508202672,-0.028955984860658646,0.03053947351872921
297.0619,-0.6317967176437378,0.27361199259757996,9.723583221435547,-0.006420969031751156,-0.025959013029932976,0.02844301611185074
297.0786,-0.6331773400306702,0.2812536060810089,9.711654663085938,-0.002560254419222474,-0.022782985121011734,0.027335170656442642
297.0953,-0.6057714223861694,0.27178192138671875,9.659435272216797,-0.0009198790066875517,-0.021532295271754265,0.026202183216810226
297.1119,-0.609047532081604,0.2584838569164276,9.652665138244629,-0.004282062407582998,-0.027895042672753334,0.01718844473361969
297.1286,-0.6735987067222595,0.25977185368537903,9.662081718444824,-0.005160539876669645,-0.03484182804822922,0.013726004399359226
297.1453,-0.7025429606437683,0.27296745777130127,9.670561790466309,-0.0044259727001190186,-0.03713831678032875,0.024018362164497375
297.162,-0.6891402006149292,0.30814722180366516,9.663458824157715,-0.003921789582818747,-0.04067525267601013,0.033743102103471756
297.1786,-0.6905530691146851,0.31889739632606506,9.677945137023926,-0.003395826555788517,-0.0401897095143795,0.042744334787130356
297.1953,-0.6815593838691711,0.3105541169643402,9.699053764343262,-0.0023969204630702734,-0.039476390928030014,0.0594288595020771
297.212,-0.674130916595459,0.2905287444591522,9.705601692199707,0.0006326340953819454,-0.03301377221941948,0.06625085324048996
297.2286,-0.6430009007453918,0.2471318542957306,9.662256240844727,0.0003544811625033617,-0.03525152429938316,0.05782829597592354
297.2453,-0.6735415458679199,0.23335103690624237,9.661336898803711,-0.0007350491941906512,-0.040669091045856476,0.04558325558900833
297.262,-0.7008206248283386,0.22824497520923615,9.685474395751953,-0.00017581785505171865,-0.03911835700273514,0.04244342818856239
297.2786,-0.7084493637084961,0.236952006816864,9.682754516601562,0.00039767695125192404,-0.03724420443177223,0.04953020438551903
297.2953,-0.7058393359184265,0.23253516852855682,9.667712211608887,0.0027733920142054558,-0.032075922936201096,0.05544130131602287
297.312,-0.7306362986564636,0.22658929228782654,9.614392280578613,0.003374660387635231,-0.03922149911522865,0.05895020812749863
297.3286,-0.8067996501922607,0.23034465312957764,9.64191722869873,5.493688877322711e-05,-0.048582009971141815,0.07350117713212967
297.3453,-0.7725199460983276,0.14463293552398682,9.698304176330566,-0.0033696936443448067,-0.042879197746515274,0.09111343324184418
297.362,-0.6974736452102661,0.11435579508543015,9.597732543945312,-0.0028011018875986338,-0.03487053140997887,0.09395255148410797
297.3786,-0.7354825139045715,0.1429499089717865,9.678801536560059,-0.004795812536031008,-0.028327224776148796,0.10966747254133224
297.3953,-0.7666586637496948,0.21086198091506958,9.675505638122559,0.007277159485965967,-0.023288050666451454,0.133285790681839
297.412,-0.7983943223953247,0.17643144726753235,9.641355514526367,0.010572406463325024,-0.03571087494492531,0.09118475019931793
297.4286,-0.8088735342025757,0.13765162229537964,9.732282638549805,0.005788182374089956,-0.039040107280015945,0.04876942187547684
297.4453,-0.8004654049873352,0.12100108712911606,9.719487190246582,0.003627307480201125,-0.02865973673760891,0.028534168377518654
297.462,-0.73753422498703,0.15246401727199554,9.657814979553223,0.004366958513855934,-0.02888352982699871,-0.009323337115347385
297.4786,-0.6787006258964539,0.20324937999248505,9.656431198120117,0.0035364956129342318,-0.03964997082948685,-0.04653744027018547
297.4953,-0.6245136260986328,0.2826593220233917,9.671212196350098,0.0027211043052375317,-0.046583473682403564,-0.06569120287895203
297.512,-0.627224862575531,0.40978512167930603,9.713168144226074,-7.585625280626118e-05,-0.05076221749186516,-0.08174379914999008
297.5286,-0.6039180159568787,0.5104540586471558,9.747420310974121,0.002526729367673397,-0.04888199642300606,-0.08741128444671631
297.5453,-0.5506243109703064,0.5691114664077759,9.782116889953613,0.0042875041253864765,-0.04522679001092911,-0.07862605154514313
297.562,-0.47050806879997253,0.5737912058830261,9.765277862548828,0.00942577887326479,-0.04221982881426811,-0.07675247639417648
297.5786,-0.49308615922927856,0.5291082859039307,9.713944435119629,0.011777534149587154,-0.04410139098763466,-0.09251371771097183
297.5953,-0.565910279750824,0.47576624155044556,9.697502136230469,0.01422654464840889,-0.046836528927087784,-0.09754694998264313
297.612,-0.5870304703712463,0.41979965567588806,9.732049942016602,0.01597912795841694,-0.0411437451839447,-0.09578656405210495
297.6286,-0.558417022228241,0.3591173589229584,9.728235244750977,0.016222801059484482,-0.029416298493742943,-0.08301641792058945
297.6453,-0.48152270913124084,0.3536580801010132,9.728324890136719,0.017693735659122467,-0.027452927082777023,-0.08437275886535645
297.662,-0.46595990657806396,0.3572644293308258,9.737074851989746,0.018068047240376472,-0.024587228894233704,-0.0892791897058487
297.6786,-0.4573955833911896,0.36980384588241577,9.755946159362793,0.021732864901423454,-0.020056435838341713,-0.09958798438310623
297.6953,-0.45554840564727783,0.3632601797580719,9.79489517211914,0.022134404629468918,-0.010344333946704865,-0.11709179729223251
297.712,-0.46444249153137207,0.39836764335632324,9.801373481750488,0.02860703133046627,0.002083103870972991,-0.13897714018821716
297.7286,-0.43703925609588623,0.43542370200157166,9.80624008178711,0.04001481086015701,0.023659629747271538,-0.14531636238098145
297.7453,-0.37303757667541504,0.48900455236434937,9.855118751525879,0.056023649871349335,0.05330381542444229,-0.13328218460083008
297.762,-0.271149218082428,0.5057212114334106,9.91418743133545,0.07658174633979797,0.09120435267686844,-0.10982219129800797
297.7786,-0.15666478872299194,0.4753292500972748,9.927032470703125,0.09588368982076645,0.13564783334732056,-0.08130086958408356
297.7953,-0.014132467098534107,0.47295162081718445,9.891175270080566,0.1136198565363884,0.17438644170761108,-0.059305354952812195
297.812,0.050159014761447906,0.5285359025001526,9.89350414276123,0.1282535195350647,0.20702289044857025,-0.05196882039308548
297.8286,0.0235028937458992,0.547351062297821,9.821825981140137,0.1431221216917038,0.24526353180408478,-0.04342811554670334
297.8453,0.09582767635583878,0.6396988034248352,9.87584114074707,0.1586422324180603,0.28374308347702026,-0.01809507980942726
297.862,0.1643976867198944,0.7083309888839722,9.901321411132812,0.17885252833366394,0.3339177668094635,-0.001892740256153047
297.8786,0.14658227562904358,0.8132063150405884,9.816995620727539,0.1952659785747528,0.3749101459980011,0.019379841163754463
297.8953,0.10092303156852722,0.8825926780700684,9.750727653503418,0.21219076216220856,0.39989230036735535,0.047071054577827454
297.912,0.11430815607309341,0.9914066791534424,9.659112930297852,0.22100162506103516,0.4116489291191101,0.08287564665079117
297.9286,0.03478929027915001,0.9826527833938599,9.743504524230957,0.22151291370391846,0.4171116054058075,0.1319606602191925
297.9453,0.07772640138864517,1.1884878873825073,9.884371757507324,0.22706204652786255,0.45547404885292053,0.25478971004486084
297.962,0.18519186973571777,1.4234474897384644,10.094504356384277,0.24049361050128937,0.49400967359542847,0.4126679599285126
297.9786,0.36345455050468445,1.515896201133728,10.382349967956543,0.2593282461166382,0.5459360480308533,0.5325066447257996
297.9953,0.6387847065925598,1.4996311664581299,10.560927391052246,0.28731605410575867,0.6350728869438171,0.6416471004486084
298.012,0.9651433229446411,1.2589532136917114,10.604057312011719,0.30461543798446655,0.7141449451446533,0.689473569393158
298.0286,1.1440380811691284,0.9721802473068237,10.581421852111816,0.3030458688735962,0.7863920331001282,0.6667819619178772
298.0453,1.3332160711288452,0.719584584236145,10.530035972595215,0.2848656177520752,0.8673275113105774,0.6367624402046204
298.062,1.7405487298965454,0.46650025248527527,10.467107772827148,0.23963657021522522,0.9385012984275818,0.6304289102554321
298.0786,2.2518303394317627,0.11212276667356491,10.166559219360352,0.1722620278596878,1.026570200920105,0.5864657163619995
298.0953,2.6435258388519287,-0.12290946394205093,9.836094856262207,0.07368440926074982,1.1363368034362793,0.5046040415763855
298.112,2.9984824657440186,-0.23594658076763153,9.65717601776123,0.044637806713581085,1.2477725744247437,0.33323022723197937
298.1286,3.122135639190674,-0.7916838526725769,9.676647186279297,0.003250051522627473,1.2206603288650513,-0.10915977507829666
298.1453,1.7753480672836304,-1.214165449142456,9.771556854248047,0.03497582674026489,1.3727749586105347,-0.3244166970252991
298.162,0.1372404247522354,-1.890580654144287,9.20824146270752,0.12900981307029724,1.491416335105896,-0.07574030756950378
298.1786,-0.20486506819725037,-1.4951359033584595,8.688115119934082,0.07351907342672348,1.1649982929229736,-0.04786796122789383
298.1953,0.2531798779964447,-0.21374939382076263,8.958958625793457,-0.035991646349430084,0.8108578324317932,-0.51832515001297
298.212,0.4729871153831482,1.2385278940200806,9.148561477661133,-0.1486084759235382,0.663377583026886,-0.8880705833435059
298.2286,0.6538689136505127,1.7768518924713135,9.079504013061523,-0.2121504545211792,0.5766516327857971,-1.036901593208313
298.2453,0.5539891123771667,2.2303221225738525,9.124397277832031,-0.179141104221344,0.4157344102859497,-0.8939934968948364
298.262,0.392547607421875,2.5037307739257812,8.961910247802734,-0.10818400233983994,0.2819893956184387,-0.5385203957557678
298.2786,0.40455156564712524,2.345844030380249,8.724157333374023,-0.04045376554131508,0.18892551958560944,-0.14409485459327698
298.2953,0.7461710572242737,2.0608835220336914,8.467107772827148,0.0011786221293732524,0.09580932557582855,0.18169128894805908
298.312,1.2162396907806396,1.647986650466919,8.43077564239502,0.0199813861399889,0.004917180631309748,0.4049617052078247
298.3286,1.7737597227096558,1.3976662158966064,8.470720291137695,0.004414767492562532,-0.007724732626229525,0.48190873861312866
298.3453,2.3190717697143555,1.0800737142562866,8.414040565490723,-0.025995023548603058,-0.008373234421014786,0.5050904750823975
298.362,2.7588589191436768,0.8258994221687317,8.478474617004395,-0.09405717998743057,0.051025815308094025,0.4925350546836853
298.3786,3.2343876361846924,0.655206561088562,8.444137573242188,-0.13233065605163574,0.10634869337081909,0.5245541334152222
298.3953,3.9171411991119385,0.5246942639350891,8.426795959472656,-0.1291172206401825,0.057844601571559906,0.5985096096992493
298.412,4.445819854736328,0.5146815776824951,9.063671112060547,-0.13362856209278107,0.031237836927175522,0.6234941482543945
298.4286,4.718268394470215,0.4673972725868225,9.209341049194336,-0.1015034094452858,0.1283026784658432,0.5647707581520081
298.4453,4.783656597137451,0.4186258614063263,9.287941932678223,-0.09183040261268616,0.18441864848136902,0.34961551427841187
298.462,4.088838577270508,0.3517967760562897,9.016160011291504,-0.11456660181283951,0.1232033371925354,0.019973386079072952
298.4786,3.460282564163208,0.24504354596138,9.018586158752441,-0.12603014707565308,0.010366764850914478,-0.2320989966392517
298.4953,3.2321197986602783,0.422110915184021,8.90878963470459,-0.11256686598062515,-0.050710003823041916,-0.3665468096733093
298.512,3.054774284362793,0.6283801794052124,8.646357536315918,-0.11402082443237305,-0.12786242365837097,-0.31500524282455444
298.5286,3.1458749771118164,0.6472093462944031,8.623488426208496,-0.1234811544418335,-0.1643797904253006,-0.11127520352602005
298.5453,3.354013681411743,0.6569676399230957,8.577521324157715,-0.1432647556066513,-0.14858399331569672,0.019466083496809006
298.562,3.3971292972564697,0.623693585395813,8.631011962890625,-0.17503966391086578,-0.14597448706626892,-0.007013880647718906
298.5786,3.3454644680023193,0.7185163497924805,8.864201545715332,-0.17546962201595306,-0.18378400802612305,-0.11038529127836227
298.5953,3.3341853618621826,0.8887284398078918,9.128523826599121,-0.1151886135339737,-0.24704022705554962,-0.1790325939655304
298.612,3.3334503173828125,0.9460711479187012,9.141031265258789,-0.026372268795967102,-0.3276533782482147,-0.17118756473064423
298.6286,3.327582597732544,0.9036808609962463,8.92598819732666,0.03938443586230278,-0.38725218176841736,-0.10265348851680756
298.6453,2.964991331100464,0.8407111167907715,8.796531677246094,0.07459837943315506,-0.4504455327987671,0.07052677869796753
298.662,2.4049651622772217,0.6172187924385071,8.915621757507324,0.0969582349061966,-0.5005646347999573,0.2972746789455414
298.6786,1.8036727905273438,0.4219898283481598,9.06108570098877,0.10874571651220322,-0.5330670475959778,0.3992297649383545
298.6953,2.029024124145508,0.1250901073217392,9.188034057617188,0.07951945066452026,-0.6222052574157715,0.4278086721897125
298.712,3.209627389907837,0.2128409892320633,9.677963256835938,0.028676606714725494,-0.6651620864868164,0.35129064321517944
298.7286,4.022074222564697,0.9512088894844055,10.781682014465332,0.051278360188007355,-0.5384066104888916,0.41083428263664246
298.7453,4.420852184295654,1.272422194480896,12.072590827941895,0.15839596092700958,-0.3038528859615326,0.6688563227653503
298.762,4.341244697570801,0.46851983666419983,11.844475746154785,0.27695056796073914,-0.156934455037117,0.8220162391662598
298.7786,4.041817665100098,-0.3269249498844147,10.349316596984863,0.31986942887306213,-0.12064781039953232,0.7908127307891846
298.7953,3.3542959690093994,-0.41808614134788513,8.798799514770508,0.29275450110435486,-0.12920187413692474,0.5149973630905151
298.812,2.2350332736968994,-0.26342469453811646,7.9717912673950195,0.22814759612083435,-0.17395742237567902,0.2189290076494217
298.8287,1.2338497638702393,-0.17419560253620148,8.221588134765625,0.1415732204914093,-0.2952405512332916,0.04147225245833397
298.8453,0.7663654685020447,0.2646808326244354,9.103890419006348,0.1116240844130516,-0.41776949167251587,-0.10989842563867569
298.862,0.6212961673736572,1.0547000169754028,9.670987129211426,0.1699204295873642,-0.5187237858772278,-0.08366026729345322
298.8787,0.8794463872909546,1.4505037069320679,9.689708709716797,0.24679937958717346,-0.5656832456588745,0.023787714540958405
298.8953,0.9685745239257812,1.3929665088653564,9.654879570007324,0.24924145638942719,-0.5963460803031921,0.13160812854766846
298.912,0.8950114846229553,1.107279896736145,9.591364860534668,0.21761679649353027,-0.5573534965515137,0.3062891662120819
298.9287,1.1214778423309326,0.7055294513702393,9.290468215942383,0.16195304691791534,-0.5027859210968018,0.3556813895702362
298.9453,1.283958077430725,0.5180796980857849,9.26445484161377,0.10712357610464096,-0.4973376393318176,0.24717245995998383
298.962,1.389960527420044,0.3054485619068146,9.463668823242188,0.117741160094738,-0.5154881477355957,0.174373596906662
298.9787,1.3099050521850586,0.2568016052246094,9.507071495056152,0.15788139402866364,-0.5366759896278381,0.09317563474178314
298.9953,1.0256487131118774,0.3523767590522766,9.355527877807617,0.18111054599285126,-0.5413414835929871,-0.05980262905359268
299.012,0.7557704448699951,0.5595943331718445,9.376490592956543,0.18740302324295044,-0.5470957159996033,-0.18941301107406616
299.0287,0.7420647740364075,0.6343131065368652,9.367935180664062,0.1570785641670227,-0.5609052777290344,-0.31188929080963135
299.0453,0.5879144668579102,1.0050345659255981,9.427748680114746,0.10125282406806946,-0.5616677403450012,-0.4161652624607086
299.062,0.4654431641101837,1.6301612854003906,9.641469955444336,0.05925450101494789,-0.5426543354988098,-0.38065284490585327
299.0787,-0.0048264386132359505,2.0232763290405273,9.771738052368164,0.06061605364084244,-0.5042189955711365,-0.31774720549583435
299.0953,-0.48987123370170593,2.1629981994628906,9.828407287597656,0.09436608850955963,-0.45231524109840393,-0.20754468441009521
299.112,-0.6153384447097778,2.240180015563965,9.765029907226562,0.13502137362957,-0.4082585275173187,-0.02910640649497509
299.1287,-0.6471508145332336,2.06887149810791,9.833990097045898,0.16737675666809082,-0.3610534071922302,0.126738503575325
299.1453,-0.49191054701805115,1.8957570791244507,9.83564281463623,0.1859646737575531,-0.3141994774341583,0.2754322588443756
299.162,-0.3104652166366577,1.6739884614944458,9.8301420211792,0.18014533817768097,-0.288571834564209,0.30933013558387756
299.1787,-0.31613147258758545,1.2414730787277222,9.816554069519043,0.17192445695400238,-0.26805436611175537,0.2249416559934616
299.1953,-0.1079610139131546,0.7060096859931946,9.485901832580566,0.1550498902797699,-0.25633007287979126,0.07744970172643661
299.212,0.24787962436676025,0.5278624892234802,9.513745307922363,0.11591140925884247,-0.3130505681037903,-0.06110793352127075
299.2287,0.43184688687324524,0.6705490350723267,9.610095024108887,0.07454131543636322,-0.34997081756591797,-0.25183171033859253
299.2453,0.2919197380542755,0.8964371681213379,9.500324249267578,0.03716988489031792,-0.39840221405029297,-0.4415600299835205
299.262,0.0531231164932251,1.227925419807434,9.520304679870605,-0.006019290536642075,-0.4373821020126343,-0.5521262288093567
299.2787,-0.25561976432800293,1.5205522775650024,9.538626670837402,-0.032158005982637405,-0.4436231255531311,-0.6099785566329956
299.2953,-0.48170730471611023,1.8866758346557617,9.547870635986328,-0.026993388310074806,-0.42449361085891724,-0.5948920249938965
299.312,-0.536823570728302,2.055126190185547,9.485328674316406,-0.016612622886896133,-0.4206978976726532,-0.5066681504249573
299.3287,-0.5957958102226257,2.0464603900909424,9.59060287475586,-0.02347658760845661,-0.41151875257492065,-0.4034102261066437
299.3453,-0.6439638733863831,1.9259467124938965,9.691835403442383,-0.01946672983467579,-0.3909607529640198,-0.3064311742782593
299.362,-0.642139196395874,1.6982189416885376,9.714238166809082,-0.011158151552081108,-0.3763095438480377,-0.21746346354484558
299.3787,-0.5609957575798035,1.3953651189804077,9.761387825012207,0.0045964065939188,-0.3458973169326782,-0.15275992453098297
299.3953,-0.38525640964508057,1.0237014293670654,9.717567443847656,0.01577220857143402,-0.3185611069202423,-0.14528539776802063
299.412,-0.20683960616588593,0.7898001670837402,9.575899124145508,0.023548388853669167,-0.31704482436180115,-0.19699124991893768
299.4287,-0.023095261305570602,0.8439819812774658,9.707273483276367,0.0056521110236644745,-0.3055431842803955,-0.25600215792655945
299.4453,-0.05814429372549057,0.9238004684448242,9.739328384399414,-0.005817854311317205,-0.28464773297309875,-0.3414324223995209
299.462,-0.2608805000782013,0.9330716729164124,9.605830192565918,-0.014364226721227169,-0.29884496331214905,-0.43629127740859985
299.4787,-0.37553349137306213,1.0335602760314941,9.664295196533203,-0.04085869714617729,-0.3291548788547516,-0.5447952151298523
299.4953,-0.425278902053833,1.1238102912902832,9.67122745513916,-0.06053219735622406,-0.3289565443992615,-0.6282181143760681
299.512,-0.4635260999202728,1.247698426246643,9.529638290405273,-0.07707852870225906,-0.3456689715385437,-0.6747903823852539
299.5287,-0.47797146439552307,1.3605799674987793,9.682063102722168,-0.09790023416280746,-0.37056779861450195,-0.7011695504188538
299.5453,-0.4589207172393799,1.4308055639266968,9.605249404907227,-0.10258013010025024,-0.35723426938056946,-0.7204074859619141
299.562,-0.5538625717163086,1.4995464086532593,9.599666595458984,-0.10372663289308548,-0.3707881569862366,-0.7124696969985962
299.5787,-0.6369124054908752,1.4172073602676392,9.691498756408691,-0.09316935390233994,-0.37133339047431946,-0.6424019932746887
299.5953,-0.405932754278183,1.2981159687042236,9.650324821472168,-0.0810781791806221,-0.35385894775390625,-0.6112232804298401
299.612,-0.30919620394706726,1.21980881690979,9.552721977233887,-0.07547695934772491,-0.3621446192264557,-0.6092056035995483
299.6287,-0.4210679829120636,0.9625527858734131,9.546478271484375,-0.0744243785738945,-0.38836953043937683,-0.6517347097396851
299.6453,-0.3882752060890198,0.809682309627533,9.463400840759277,-0.07706519961357117,-0.38785743713378906,-0.7190719246864319
299.662,-0.3964102864265442,0.7296828031539917,9.438159942626953,-0.08240527659654617,-0.38612422347068787,-0.7832503914833069
299.6787,-0.45633023977279663,0.7277039289474487,9.423249244689941,-0.0886407345533371,-0.39159825444221497,-0.8603754043579102
299.6953,-0.5347979664802551,0.8388456702232361,9.457015991210938,-0.1036698967218399,-0.419410765171051,-0.9713466167449951
299.712,-0.8703693747520447,0.860238254070282,9.42325210571289,-0.122357077896595,-0.45362192392349243,-1.0865070819854736
299.7287,-1.245954990386963,0.882357656955719,9.354098320007324,-0.13161064684391022,-0.49039292335510254,-1.116491675376892
299.7453,-1.2938252687454224,0.9062126874923706,9.299700736999512,-0.13156768679618835,-0.516694962978363,-1.0788757801055908
299.762,-1.2702590227127075,0.8518146276473999,9.282783508300781,-0.14567291736602783,-0.5667603015899658,-1.1037189960479736
299.7787,-1.4908736944198608,0.8013749122619629,9.19787883758545,-0.14917127788066864,-0.6087364554405212,-1.1448739767074585
299.7953,-1.5848606824874878,0.8126434087753296,9.161012649536133,-0.13722720742225647,-0.6405937671661377,-1.1020649671554565
299.812,-1.5286247730255127,0.6883561611175537,9.39558219909668,-0.12803496420383453,-0.6535487174987793,-1.020814299583435
299.8287,-1.3605000972747803,0.5877817869186401,9.49328899383545,-0.12927347421646118,-0.6586173176765442,-0.9603564143180847
299.8453,-1.022910475730896,0.6688158512115479,9.626940727233887,-0.13196787238121033,-0.6492190361022949,-0.9050227999687195
299.862,-0.727537989616394,1.0271271467208862,10.069994926452637,-0.13020019233226776,-0.6331958770751953,-0.8891766667366028
299.8787,-0.8194578289985657,1.784704566001892,10.488029479980469,-0.10982531309127808,-0.6066887378692627,-0.883260190486908
299.8953,-0.9939684271812439,3.0184547901153564,11.413884162902832,-0.05723536014556885,-0.5471787452697754,-0.7341835498809814
299.912,-1.1527624130249023,3.6332662105560303,11.825224876403809,0.05866898596286774,-0.39169296622276306,-0.5202287435531616
299.9287,-0.5641948580741882,3.3609492778778076,11.986775398254395,0.20727209746837616,-0.1654435396194458,-0.3091508746147156
299.9453,0.3813515901565552,2.2111923694610596,11.671615600585938,0.34592950344085693,0.09740997105836868,-0.1530873328447342
299.962,1.1406959295272827,0.8062254190444946,11.6173734664917,0.4223628342151642,0.41661715507507324,-0.0899035707116127
299.9787,1.6094311475753784,-0.5397709012031555,11.340800285339355,0.43137723207473755,0.7376416921615601,-0.1740129590034485
299.9953,2.0496208667755127,-1.8193798065185547,10.756608009338379,0.37248748540878296,1.0312408208847046,-0.32967862486839294
300.012,2.7819418907165527,-3.007657051086426,10.315628051757812,0.27305957674980164,1.382094144821167,-0.455276757478714
300.0287,2.91440486907959,-3.69218111038208,10.11805248260498,0.14417687058448792,1.7662928104400635,-0.7247954607009888
300.0453,2.5790767669677734,-3.4714226722717285,10.184052467346191,0.046223126351833344,2.1057136058807373,-1.167793869972229
300.062,1.2153810262680054,-2.5170254707336426,10.809938430786133,-0.028561444953083992,2.31081485748291,-1.745492935180664
300.0787,-0.8879045844078064,-0.7078681588172913,11.535067558288574,-0.01176920160651207,2.398862361907959,-2.16367769241333
300.0953,-2.7633092403411865,1.3411002159118652,12.054886817932129,0.11456795781850815,2.3438777923583984,-2.0145437717437744
300.112,-3.9365437030792236,2.672163963317871,12.240714073181152,0.2970310151576996,2.1921775341033936,-1.3945695161819458
300.1287,-4.47403621673584,3.320577383041382,12.170564651489258,0.45128774642944336,1.997712254524231,-0.5665647387504578
300.1453,-4.524363994598389,2.7465977668762207,12.316256523132324,0.5875460505485535,1.835868000984192,0.3425839841365814
300.162,-3.0974535942077637,1.4141879081726074,12.649859428405762,0.5676990151405334,2.0001378059387207,1.0509506464004517
300.1787,-0.9368413686752319,0.7326551675796509,11.900748252868652,0.4728323221206665,2.1585261821746826,1.3487532138824463
300.1953,0.9957051873207092,0.19325821101665497,11.003318786621094,0.3729483187198639,2.2317276000976562,1.308998942375183
300.212,1.9413033723831177,0.16665056347846985,10.234821319580078,0.3325599730014801,2.2522964477539062,0.823032796382904
300.2287,1.4456311464309692,-0.2408308982849121,9.794632911682129,0.3659598231315613,2.122382879257202,0.348168283700943
300.2453,0.6208927631378174,-0.25180676579475403,9.340961456298828,0.40674859285354614,1.8931609392166138,0.11707345396280289
300.262,0.018097659572958946,-0.2661331295967102,9.02126693725586,0.42928919196128845,1.596126675605774,0.10774539411067963
300.2787,-0.3293396532535553,-0.15428763628005981,8.47942066192627,0.4092482328414917,1.3387545347213745,0.28160881996154785
300.2953,-0.31255701184272766,-0.32484495639801025,7.784140586853027,0.3818677067756653,1.1749379634857178,0.5712872743606567
300.312,0.2356555163860321,-0.9018843173980713,6.772883892059326,0.3042522072792053,1.0163028240203857,0.6277114152908325
300.3287,0.7811248302459717,-1.2978571653366089,5.822624206542969,0.19679304957389832,0.8386397361755371,0.43744075298309326
300.3453,1.0391991138458252,-1.2731003761291504,4.694314002990723,-0.019060157239437103,0.6389178037643433,0.10542173683643341
300.362,1.317878007888794,-1.0930489301681519,4.546498775482178,-0.23147013783454895,0.44726112484931946,-0.20991481840610504
300.3787,1.9110090732574463,-0.6346628069877625,4.664791107177734,-0.3844633996486664,0.3360484838485718,-0.4241815209388733
300.3953,2.50211763381958,-0.01859278418123722,5.101436614990234,-0.5455886721611023,0.1112372949719429,-0.5504069328308105
300.412,3.067481517791748,1.2865568399429321,6.073383808135986,-0.6704846024513245,-0.19736680388450623,-0.48376527428627014
300.4287,3.8935768604278564,2.5870161056518555,7.37930965423584,-0.7221185564994812,-0.4095495045185089,-0.1399707794189453
300.4453,4.809133052825928,3.725524663925171,8.883805274963379,-0.6668912768363953,-0.5361477732658386,0.33900749683380127
300.462,6.489742279052734,3.992941379547119,9.81490421295166,-0.5525760054588318,-0.6694124937057495,0.5957454442977905
300.4787,7.941014766693115,4.32746696472168,10.91455364227295,-0.4111552834510803,-0.6323824524879456,0.579052209854126
300.4954,7.597506999969482,4.388382911682129,11.192909240722656,-0.08836399763822556,-0.40585827827453613,0.7994261980056763
300.512,5.997096538543701,3.214219808578491,11.031311988830566,0.26490116119384766,-0.25839290022850037,1.221178650856018
300.5287,4.039114475250244,1.695017695426941,10.065723419189453,0.5787409543991089,0.05663147196173668,1.523117184638977
300.5454,3.4533724784851074,0.743148148059845,7.566643238067627,0.8291729092597961,0.4114210307598114,1.6990878582000732
300.562,2.496305227279663,-0.8628799319267273,4.703429222106934,0.7886865139007568,0.0006079108570702374,1.873753547668457
300.5787,2.134040594100952,-1.9720861911773682,4.636007785797119,0.5592582821846008,-0.8046782612800598,1.4576090574264526
300.5954,3.120939016342163,-1.8562021255493164,9.86230754852295,0.08603798598051071,-1.3321019411087036,0.6414345502853394
300.612,4.200124263763428,0.018379682675004005,19.385391235351562,-0.16096332669258118,-0.9885891675949097,0.5991107821464539
300.6287,4.299017906188965,2.0686745643615723,20.730331420898438,0.41282176971435547,-0.11327426135540009,1.9505538940429688
300.6454,4.291638374328613,-0.6041649580001831,12.590447425842285,1.0556870698928833,0.02434619516134262,3.263582468032837
300.662,1.946475625038147,-3.7938544750213623,6.414361953735352,0.9809883236885071,0.012465664185583591,2.354137420654297
300.6787,-1.407158374786377,-5.205671310424805,3.03122615814209,0.5693284273147583,-0.34705960750579834,0.14661738276481628
300.6954,-1.0024662017822266,-3.826103925704956,3.0352702140808105,0.16228969395160675,-1.0060654878616333,-0.5778905153274536
300.712,1.7645189762115479,-0.6955519914627075,6.101438522338867,-0.11873311549425125,-1.4497275352478027,-0.5969138741493225
300.7287,0.10536955296993256,2.732916831970215,10.237205505371094,-0.14044710993766785,-1.6617403030395508,-1.0361015796661377
300.7454,-1.7966623306274414,5.4081830978393555,12.83039665222168,0.05448829010128975,-1.8073493242263794,-0.9151924252510071
300.762,-0.7896448373794556,5.589383602142334,11.53905200958252,0.31936612725257874,-1.4561747312545776,-0.1396438032388687
300.7787,-0.275659441947937,4.263381481170654,9.237095832824707,0.3598432242870331,-1.0173932313919067,0.5828636884689331
300.7954,0.024634933099150658,3.0484001636505127,7.958631992340088,0.22826677560806274,-0.7761790156364441,1.071789026260376
300.812,0.5165604948997498,1.9292263984680176,8.64294147491455,0.11346455663442612,-0.7309080362319946,1.22641921043396
300.8287,0.7519495487213135,0.8608061671257019,9.73146915435791,0.1003420278429985,-0.7529757618904114,1.0754591226577759
300.8454,1.1030144691467285,0.035114578902721405,10.045700073242188,0.1506018042564392,-0.7995764017105103,0.7312619090080261
300.862,1.0794914960861206,-0.3749050498008728,9.759479522705078,0.1923091858625412,-0.8581622838973999,0.29473137855529785
300.8787,1.0129462480545044,-0.792373776435852,9.284526824951172,0.1373288482427597,-0.9653130173683167,-0.0992940217256546
300.8954,0.5861560106277466,-0.6771498918533325,9.007466316223145,-0.015258090570569038,-1.044448733329773,-0.5308815836906433
300.912,-0.14845013618469238,-0.3285713195800781,9.181745529174805,-0.20204579830169678,-1.107926845550537,-0.8744701147079468
300.9287,-0.7712920904159546,0.026563744992017746,9.804802894592285,-0.4070350229740143,-1.0514558553695679,-1.0343769788742065
300.9454,-1.0525388717651367,0.6509657502174377,9.875343322753906,-0.47898566722869873,-1.012658953666687,-0.8951259851455688
300.962,-1.095334529876709,1.1220879554748535,10.103985786437988,-0.47654762864112854,-0.9908969402313232,-0.6372960209846497
300.9787,-1.1446151733398438,1.462643027305603,9.774327278137207,-0.4132203757762909,-0.9865779876708984,-0.4107014536857605
300.9954,-1.1492829322814941,1.8427464962005615,9.451798439025879,-0.36616969108581543,-1.0365065336227417,-0.23700453341007233
301.012,-1.1281996965408325,2.0086722373962402,9.577424049377441,-0.3412712812423706,-1.0947380065917969,-0.03685373440384865
301.0287,-0.9853512644767761,1.8381898403167725,9.728392601013184,-0.3205799460411072,-1.0998047590255737,0.16286581754684448
301.0454,-0.8162960410118103,1.4880256652832031,9.622232437133789,-0.3024882376194,-1.0709291696548462,0.2661047875881195
301.062,-0.6014954447746277,0.8941822648048401,9.384848594665527,-0.3025951385498047,-1.0741462707519531,0.2165364921092987
301.0787,-0.43881651759147644,0.22557763755321503,9.28402042388916,-0.33594000339508057,-1.097640872001648,-0.007631324697285891
301.0954,-0.18374715745449066,-0.30446597933769226,9.280338287353516,-0.38833191990852356,-1.15276038646698,-0.23274193704128265
301.112,-0.04649151861667633,-0.5895322561264038,9.407282829284668,-0.44247865676879883,-1.2342946529388428,-0.3747241497039795
301.1287,-0.37095752358436584,-0.662609338760376,9.598529815673828,-0.5062174797058105,-1.387956976890564,-0.5271582007408142
301.1454,-0.7624685168266296,-0.6849294304847717,10.00515079498291,-0.5425557494163513,-1.4384628534317017,-0.6722153425216675
301.162,-0.43552327156066895,-0.4627522826194763,10.254398345947266,-0.5090816617012024,-1.3433740139007568,-0.6385049819946289
301.1787,0.2873607575893402,-0.04206519201397896,9.9108304977417,-0.43326783180236816,-1.1569108963012695,-0.57526034116745
301.1954,0.820354700088501,0.8443973660469055,10.085009574890137,-0.37683212757110596,-0.9727415442466736,-0.5683633089065552
301.212,0.320811003446579,1.9924750328063965,10.219135284423828,-0.3387158215045929,-0.7589362263679504,-0.6676008105278015
301.2287,-0.991059422492981,3.0120253562927246,10.673737525939941,-0.32533225417137146,-0.6548374891281128,-0.6948245763778687
301.2454,-1.6586517095565796,3.418842077255249,11.204480171203613,-0.27900367975234985,-0.6103377938270569,-0.6035881042480469
301.262,-1.4560149908065796,2.5806736946105957,11.13965129852295,-0.15963329374790192,-0.517224907875061,-0.42117172479629517
301.2787,-0.33111581206321716,1.2096242904663086,10.989880561828613,-0.04351630061864853,-0.4287981390953064,-0.2501842975616455
301.2954,0.784555196762085,0.5248668193817139,11.489277839660645,0.01620815135538578,-0.28894275426864624,-0.21885672211647034
301.312,0.8890141844749451,0.9435961842536926,11.946739196777344,0.025469692423939705,-0.08716829121112823,-0.29901519417762756
301.3287,0.5310419201850891,2.2183175086975098,12.107519149780273,0.06337340176105499,0.16702412068843842,-0.2999456822872162
301.3454,-0.08533269912004471,2.8240256309509277,12.091217041015625,0.1927272081375122,0.4366324245929718,-0.16772158443927765
301.362,-0.24532799422740936,1.9987454414367676,11.752254486083984,0.36603644490242004,0.7790496945381165,0.14829781651496887
301.3787,0.5651528835296631,0.08847175538539886,10.31651782989502,0.4452289342880249,1.1908825635910034,0.5785741209983826
301.3954,2.575969934463501,-1.2469218969345093,9.74785327911377,0.3721611201763153,1.6093761920928955,1.0708062648773193
301.412,2.604398727416992,-1.894553780555725,9.963850975036621,0.3214510977268219,1.9302358627319336,0.6372396349906921
301.4287,1.7118695974349976,-2.1860861778259277,11.243016242980957,0.2921367585659027,2.239744186401367,-0.026265893131494522
301.4454,0.8171984553337097,-1.862195611000061,11.983475685119629,0.36514583230018616,2.5779502391815186,-0.8687807321548462
301.462,-1.467331886291504,-0.9571893811225891,11.7669677734375,0.461208313703537,2.6191439628601074,-1.649941325187683
301.4787,-3.2833411693573,-0.2451229691505432,12.237236022949219,0.6680106520652771,2.3411567211151123,-1.8969056606292725
301.4954,-3.7952466011047363,0.04479263722896576,12.517829895019531,0.9405701756477356,1.9877979755401611,-1.6192964315414429
301.512,-3.1959927082061768,0.03475099429488182,12.21982192993164,1.1180782318115234,1.7992810010910034,-0.839500367641449
301.5287,-2.9671552181243896,0.4193357825279236,12.459226608276367,1.1265416145324707,1.8201818466186523,0.02726755104959011
301.5454,-2.3756163120269775,0.7288824915885925,12.294708251953125,1.145288348197937,1.8719465732574463,0.6945091485977173
301.562,-1.234479308128357,0.7694197297096252,11.580703735351562,1.2297955751419067,1.9266926050186157,1.0333540439605713
301.5787,-0.7176046371459961,1.4833321571350098,11.487776756286621,1.2460691928863525,1.856514811515808,1.0931735038757324
301.5954,-0.9057022929191589,1.6035484075546265,11.057295799255371,1.2203532457351685,1.8209896087646484,1.240317940711975
301.612,-0.9620714783668518,1.0509867668151855,10.374126434326172,1.1435424089431763,1.7821625471115112,1.5378507375717163
301.6287,-1.2843903303146362,1.066498875617981,9.772176742553711,1.0620862245559692,1.712773084640503,1.784406065940857
301.6454,-1.8208324909210205,1.519304871559143,8.98055648803711,1.0229899883270264,1.6522159576416016,2.350024700164795
301.662,-2.0891528129577637,1.1684776544570923,8.26635456085205,0.9607760906219482,1.6039776802062988,3.092999219894409
301.6787,-1.4737071990966797,-0.36340218782424927,7.42241096496582,0.8838630318641663,1.4574007987976074,3.3795816898345947
301.6954,-0.25473979115486145,-2.210151195526123,6.507937431335449,0.757662832736969,1.1971604824066162,3.08260178565979
301.712,1.4325361251831055,-3.40348482131958,5.848446369171143,0.6008754968643188,0.9214392900466919,2.319837808609009
301.7287,2.8288440704345703,-3.6492419242858887,5.147661209106445,0.45215535163879395,0.6482236385345459,1.1934950351715088
301.7454,3.0812296867370605,-3.160493850708008,4.56099271774292,0.27362188696861267,0.3472033143043518,0.09524274617433548
301.762,2.6965904235839844,-2.5306081771850586,4.247119903564453,0.08521246910095215,0.023779693990945816,-0.6729217767715454
301.7787,2.100355386734009,-2.0497372150421143,4.410403728485107,-0.13008028268814087,-0.33692923188209534,-1.1149946451187134
301.7954,2.221317768096924,-1.811182975769043,5.409235954284668,-0.32103073596954346,-0.5668237209320068,-1.2135798931121826
301.812,2.4493002891540527,-1.2074534893035889,6.327586650848389,-0.49355876445770264,-0.7220557332038879,-1.2662725448608398
301.8287,2.6243648529052734,0.312158465385437,8.014997482299805,-0.6537076830863953,-0.8429228663444519,-1.2570322751998901
301.8454,3.754920244216919,2.5844717025756836,9.718219757080078,-0.6691424250602722,-0.7315421104431152,-0.9477724432945251
301.862,5.066258430480957,6.261439323425293,11.453753471374512,-0.4275120198726654,-0.35558634996414185,0.017832500860095024
301.8787,6.9845476150512695,7.617243766784668,12.412345886230469,0.1556423455476761,0.07946445047855377,1.3611445426940918
301.8954,7.189749717712402,5.663797855377197,12.235369682312012,0.5506920218467712,0.04222302883863449,1.980525016784668
301.912,7.038633823394775,3.7047741413116455,11.065217018127441,0.6036578416824341,0.10524363070726395,1.6025351285934448
301.9287,6.057858467102051,2.6122794151306152,9.053986549377441,0.6116807460784912,0.10363161563873291,1.1004447937011719
301.9454,5.063782691955566,1.212033748626709,7.639514446258545,0.6171374320983887,-0.08409802615642548,0.6744596362113953
301.962,3.812028646469116,0.45187440514564514,6.351398468017578,0.6347026824951172,-0.34490519762039185,0.3372177481651306
301.9787,2.175908088684082,0.004378417506814003,5.943299293518066,0.5681025385856628,-0.6126769185066223,0.08289581537246704
301.9954,2.1085078716278076,-0.4115901291370392,6.9311089515686035,0.35351431369781494,-0.9607681035995483,0.2497633546590805
302.012,4.363855361938477,0.34559181332588196,12.207569122314453,-0.08452219516038895,-1.328995943069458,0.6448290944099426
302.0287,5.056825637817383,2.740854024887085,21.316722869873047,-0.14770233631134033,-0.8134630918502808,1.3957440853118896
302.0454,4.642884254455566,5.2418012619018555,18.432035446166992,0.8172492980957031,0.26107752323150635,3.385685920715332
302.062,4.429591178894043,0.8998683094978333,9.84316349029541,1.247253179550171,-0.02802589349448681,4.482481956481934
302.0787,-0.11420640349388123,-3.4912917613983154,5.955921649932861,0.7981909513473511,0.04132181406021118,2.276960849761963
302.0954,-4.91447639465332,-6.097614288330078,1.7627032995224,0.4042397737503052,-0.4235893487930298,-0.3523217439651489
302.112,-1.6806013584136963,-4.541806221008301,3.0727245807647705,0.1540764421224594,-1.3430488109588623,-0.4090774655342102
302.1287,1.0485954284667969,-0.24432039260864258,6.273384094238281,0.0051039415411651134,-1.4713419675827026,-0.5113897323608398
302.1454,-2.91420316696167,2.8471033573150635,9.894312858581543,0.0019700073171406984,-1.6385841369628906,-1.461838722229004
302.1621,-2.9142353534698486,4.682082653045654,13.640276908874512,0.09612683951854706,-1.7591359615325928,-0.9960523247718811
302.1787,-1.3778941631317139,4.178051948547363,13.188451766967773,0.14993014931678772,-1.1897555589675903,-0.23012317717075348
302.1954,-0.7001740336418152,2.8544538021087646,10.220133781433105,0.10210946947336197,-0.8930858373641968,0.448089063167572
302.2121,0.054152801632881165,1.495898723602295,8.722945213317871,0.0021200489718466997,-0.8229197859764099,0.5743090510368347
302.2287,0.125139981508255,0.6409738659858704,8.53099536895752,-0.04583507776260376,-0.882398784160614,0.26317450404167175
302.2454,0.6869852542877197,-0.535228967666626,9.081043243408203,-0.032499659806489944,-1.108487844467163,-0.10960028320550919
302.2621,1.0672212839126587,-0.8610809445381165,9.5179443359375,-0.05556606128811836,-1.323567509651184,-0.6220293045043945
302.2787,0.8562114834785461,-0.47598370909690857,10.115899085998535,-0.12719467282295227,-1.3289215564727783,-1.0503301620483398
302.2954,0.37128615379333496,0.06798259913921356,9.688994407653809,-0.17622776329517365,-1.1524109840393066,-1.2437410354614258
302.3121,0.07894439995288849,0.6488589644432068,8.957952499389648,-0.2661684453487396,-0.9891082048416138,-1.4276559352874756
302.3287,0.03570156171917915,1.262356162071228,8.926850318908691,-0.38393285870552063,-0.9280391931533813,-1.5179202556610107
302.3454,-0.06501815468072891,2.1389682292938232,9.294334411621094,-0.4387212097644806,-0.9458509087562561,-1.5007128715515137
302.3621,-0.5164234638214111,3.0327587127685547,9.908158302307129,-0.45123568177223206,-0.9637712240219116,-1.345432996749878
302.3787,-1.113247275352478,3.280841112136841,9.94685173034668,-0.36520519852638245,-0.929118812084198,-1.0144593715667725
302.3954,-1.2907042503356934,3.0884151458740234,9.889201164245605,-0.26573309302330017,-0.8970879316329956,-0.6007199883460999
302.4121,-0.8868802785873413,2.5014595985412598,9.706266403198242,-0.20536209642887115,-0.8472812175750732,-0.25874677300453186
302.4287,-0.32484886050224304,1.5964481830596924,9.661500930786133,-0.20776070654392242,-0.8427335023880005,-0.10816959291696548
302.4454,0.10038874298334122,0.7156458497047424,9.589675903320312,-0.23219633102416992,-0.8624767661094666,-0.1989978849887848
302.4621,0.3044266700744629,0.007588345557451248,9.536256790161133,-0.26445794105529785,-0.9405697584152222,-0.46155881881713867
302.4787,0.2395561784505844,-0.544214129447937,9.496909141540527,-0.30221498012542725,-1.0732147693634033,-0.7798447012901306
302.4954,0.043862484395504,-0.8837843537330627,9.280898094177246,-0.34715181589126587,-1.1754484176635742,-1.0883694887161255
302.5121,0.06826118379831314,-1.0063186883926392,9.336209297180176,-0.386788547039032,-1.1902633905410767,-1.2972606420516968
302.5287,0.039381787180900574,-0.7883786559104919,9.652012825012207,-0.4058983027935028,-1.0781784057617188,-1.435370683670044
302.5454,-0.06275031715631485,0.22711388766765594,9.497136116027832,-0.4031197130680084,-0.8779864311218262,-1.5016480684280396
302.5621,-0.4411494731903076,1.7333543300628662,9.411827087402344,-0.4254348874092102,-0.8011800050735474,-1.5124012231826782
302.5787,-1.5581930875778198,3.1535394191741943,9.737448692321777,-0.43254756927490234,-0.7909777164459229,-1.4140899181365967
302.5954,-2.4377429485321045,3.952760934829712,10.275821685791016,-0.3933127522468567,-0.7691344022750854,-1.1263978481292725
302.6121,-2.314021587371826,3.7400200366973877,10.61180591583252,-0.3101235032081604,-0.7307268977165222,-0.7712340354919434
302.6287,-1.5548579692840576,2.6998255252838135,10.565237998962402,-0.23640917241573334,-0.6887016892433167,-0.5169997215270996
302.6454,-0.5924054384231567,1.2781503200531006,10.236382484436035,-0.21273572742938995,-0.6555846333503723,-0.4180362820625305
302.6621,0.2482045739889145,0.19597364962100983,10.501903533935547,-0.21300102770328522,-0.6320266723632812,-0.4894718825817108
302.6787,0.25763869285583496,0.3540342152118683,10.977030754089355,-0.21750245988368988,-0.5263886451721191,-0.5958529114723206
302.6954,-0.13349489867687225,1.41749107837677,11.811857223510742,-0.18501462042331696,-0.331261545419693,-0.5745112895965576
302.7121,-0.2134941816329956,2.2136940956115723,11.86642074584961,-0.07525362819433212,-0.13794231414794922,-0.560675323009491
302.7287,0.0463465079665184,2.34798002243042,11.73796558380127,0.10049613565206528,0.12449786067008972,-0.500305712223053
302.7454,0.5131641030311584,1.9578551054000854,11.982019424438477,0.26828980445861816,0.3768053352832794,-0.3737561106681824
302.7621,1.2762433290481567,1.3297736644744873,12.548523902893066,0.42071691155433655,0.7188819646835327,-0.2124432623386383
302.7787,2.080608367919922,0.07562434673309326,11.782602310180664,0.5080973505973816,1.1539011001586914,-0.14292380213737488
302.7954,3.0501859188079834,-1.2575184106826782,11.112329483032227,0.5572819709777832,1.768947720527649,-0.2022928148508072
302.8121,2.8063156604766846,-2.8416192531585693,10.687061309814453,0.6090449094772339,2.187635660171509,-0.5829926133155823
302.8287,1.786169171333313,-3.9176127910614014,10.987558364868164,0.6211282014846802,2.445767641067505,-1.1062768697738647
302.8454,0.27201196551322937,-3.6583874225616455,11.363578796386719,0.6132138967514038,2.7041001319885254,-1.7000958919525146
302.8621,-1.79611337184906,-3.0392487049102783,11.34246826171875,0.6644763350486755,2.629812002182007,-1.879899263381958
302.8787,-2.5032503604888916,-2.7118005752563477,11.729546546936035,0.6959971785545349,2.2948174476623535,-1.734483003616333
302.8954,-2.4961390495300293,-1.8126078844070435,12.376712799072266,0.7566588521003723,1.9824349880218506,-1.4461783170700073
302.9121,-2.219642400741577,-0.443970650434494,12.504129409790039,0.787214994430542,1.8632316589355469,-1.109710454940796
302.9287,-1.837955355644226,0.9464647173881531,11.963626861572266,0.806661069393158,1.8559430837631226,-0.5791524648666382
302.9454,-1.627367615699768,1.5517032146453857,11.326996803283691,0.8155473470687866,1.827475666999817,0.11979451030492783
302.9621,-1.4050480127334595,1.9755626916885376,11.086126327514648,0.846189558506012,1.8736076354980469,0.6494153738021851
302.9787,-0.8903800249099731,1.8929357528686523,9.926433563232422,0.817973792552948,1.9353288412094116,0.892177939414978
302.9954,-1.0452920198440552,1.487258791923523,9.434661865234375,0.7712740302085876,1.8148493766784668,0.9358680844306946
303.0121,-0.8358909487724304,0.20898368954658508,8.988438606262207,0.7199038863182068,1.823723554611206,1.0674293041229248
303.0287,-1.0560286045074463,-0.47694846987724304,8.95815658569336,0.6530643701553345,1.739450454711914,1.3830424547195435
303.0454,-1.2638846635818481,-0.5403501391410828,8.751585006713867,0.5938862562179565,1.6849263906478882,1.7734649181365967
303.0621,-0.8027324080467224,-0.8763382434844971,8.450246810913086,0.5412653684616089,1.5994242429733276,1.8313214778900146
303.0787,-0.05918130278587341,-1.402512550354004,7.986729145050049,0.5068328380584717,1.4345589876174927,1.5610660314559937
303.0954,1.1995244026184082,-1.524215579032898,7.228221416473389,0.4788428544998169,1.2299134731292725,1.079556941986084
303.1121,2.3621346950531006,-1.7891169786453247,5.766768932342529,0.4551277458667755,0.9738842248916626,0.4309639632701874
303.1287,2.68080735206604,-1.8098105192184448,5.102438449859619,0.38438165187835693,0.555590033531189,-0.1983748823404312
303.1454,2.593329429626465,-1.6510204076766968,4.817376613616943,0.26553037762641907,0.24864870309829712,-0.5826748609542847
303.1621,2.2937777042388916,-1.41501784324646,4.830642223358154,0.035073813050985336,-0.046820610761642456,-0.7542926073074341
303.1787,2.0186474323272705,-1.0977329015731812,5.31444787979126,-0.23942135274410248,-0.3459990620613098,-0.7991957664489746
303.1954,2.1303915977478027,-0.6814761757850647,6.16487979888916,-0.49690309166908264,-0.4852476716041565,-0.8942624926567078
303.2121,2.287278652191162,0.1422620415687561,7.120728969573975,-0.680046796798706,-0.4771299958229065,-0.9750137329101562
303.2287,2.438345193862915,0.8296279907226562,7.0516510009765625,-0.7417317032814026,-0.4669521450996399,-0.9012525081634521
303.2454,3.2443599700927734,2.7696144580841064,8.818679809570312,-0.6445890665054321,-0.4116310477256775,-0.4193361699581146
303.2621,5.171261787414551,4.418924331665039,10.116150856018066,-0.46066179871559143,-0.24729953706264496,0.2507772743701935
303.2787,7.321694850921631,5.257052898406982,11.276060104370117,-0.19294077157974243,-0.0369628369808197,0.8935993313789368
303.2954,8.909031867980957,4.445804595947266,10.90190601348877,-0.02142084576189518,-0.13964791595935822,1.2245137691497803
303.3121,9.27877140045166,1.998477816581726,10.97718620300293,0.011333714239299297,-0.3247471749782562,0.9861987829208374
303.3287,8.245667457580566,1.095081090927124,10.622649192810059,0.15012741088867188,-0.11386261880397797,0.8221006393432617
303.3454,7.1654839515686035,0.5358141660690308,9.368497848510742,0.322276771068573,0.04263925179839134,0.8547477126121521
303.3621,5.62875509262085,-0.691530168056488,8.10054874420166,0.3731343448162079,-0.058433227241039276,0.5814490914344788
303.3787,4.006113529205322,-1.606965184211731,6.811943531036377,0.3727460205554962,-0.24234327673912048,-0.08438147604465485
303.3954,2.279078722000122,-2.1672496795654297,6.094863414764404,0.24714569747447968,-0.5009401440620422,-0.8793675303459167
303.4121,3.3807334899902344,-1.640326976776123,7.198112487792969,-0.08150601387023926,-0.8353326320648193,-1.0870157480239868
303.4287,5.0508131980896,-0.4947987496852875,13.43920612335205,-0.5437490344047546,-1.2848719358444214,-1.0096668004989624
303.4454,3.4336366653442383,3.8457798957824707,21.056537628173828,-0.3090049624443054,-0.5545746088027954,-0.4954623281955719
303.4621,2.2507805824279785,8.34345817565918,15.217729568481445,0.8578980565071106,0.02732504904270172,1.829573631286621
303.4787,2.4288341999053955,3.6598079204559326,9.26691722869873,1.2402899265289307,-0.5612730979919434,2.874217987060547
303.4954,-0.03506384417414665,-1.4144588708877563,5.63228702545166,0.9089674353599548,-0.4056376516819,1.659995198249817
303.5121,-1.9969795942306519,-2.6140213012695312,3.176632881164551,0.4037097692489624,-0.5301783680915833,0.2744002044200897
303.5287,-1.8359990119934082,-1.536493182182312,4.618927478790283,0.007803436368703842,-0.9548171758651733,0.21381086111068726
303.5454,-0.4888780415058136,-0.1354425698518753,7.8715901374816895,-0.1930096298456192,-1.2474936246871948,0.266516774892807
303.5621,-1.6449142694473267,1.0391885042190552,10.807316780090332,-0.1515631079673767,-1.3560736179351807,-0.09953401237726212
303.5787,-0.8844292759895325,1.5702922344207764,12.307615280151367,0.04406100511550903,-1.3433551788330078,-0.13071167469024658
303.5954,0.4069198966026306,1.0789146423339844,11.668065071105957,0.20459921658039093,-1.1319034099578857,-0.11584470421075821
303.6121,0.676689624786377,0.6632158160209656,10.05418586730957,0.2124459147453308,-0.9675754308700562,-0.12126640975475311
303.6287,0.8042700290679932,0.50017249584198,8.665889739990234,0.11454295367002487,-0.9318097233772278,-0.27914994955062866
303.6454,0.6070063710212708,0.13233843445777893,8.335253715515137,-0.04331517964601517,-0.9811105728149414,-0.7183494567871094
303.6621,0.2967202663421631,0.2963204085826874,8.754776954650879,-0.1713685393333435,-1.0595022439956665,-1.2284793853759766
303.6787,0.15301133692264557,0.4820995330810547,9.226240158081055,-0.20384934544563293,-1.1175299882888794,-1.5621615648269653
303.6954,-0.07845617830753326,0.6470881700515747,9.740705490112305,-0.18173491954803467,-1.2293260097503662,-1.7337853908538818
303.7121,-0.3347735106945038,1.1219921112060547,9.878556251525879,-0.16966450214385986,-1.148358702659607,-1.7734960317611694
303.7287,-0.299746036529541,1.668286919593811,9.619114875793457,-0.1880844086408615,-0.979870617389679,-1.6436363458633423
303.7454,0.21197544038295746,1.806405782699585,9.520942687988281,-0.23496973514556885,-0.8561064600944519,-1.5858286619186401
303.7621,0.3528273105621338,2.0336554050445557,9.449655532836914,-0.26377397775650024,-0.7911012172698975,-1.7271761894226074
303.7787,0.08081386238336563,2.355433940887451,9.412040710449219,-0.27366435527801514,-0.8437772989273071,-1.8091487884521484
303.7954,-0.012449195608496666,2.637009382247925,9.671856880187988,-0.2601134181022644,-0.9023751020431519,-1.723577857017517
303.8121,-0.32536160945892334,2.8630120754241943,9.930831909179688,-0.25205862522125244,-0.852243185043335,-1.4371345043182373
303.8288,-0.44321247935295105,2.4080138206481934,9.632856369018555,-0.19895021617412567,-0.8034614324569702,-1.0401808023452759
303.8454,-0.23628374934196472,1.890661358833313,9.493277549743652,-0.19267265498638153,-0.8510642051696777,-0.8786813020706177
303.8621,-0.05071786791086197,1.3183022737503052,9.332442283630371,-0.22605514526367188,-0.9077227115631104,-0.9777408838272095
303.8788,-0.0580328069627285,0.6755841374397278,9.244873046875,-0.265203058719635,-0.9508042931556702,-1.1668792963027954
303.8954,-0.09242651611566544,0.09744264930486679,9.14409065246582,-0.2825756072998047,-0.9893417358398438,-1.353601098060608
303.9121,-0.25963714718818665,-0.42356473207473755,9.018199920654297,-0.27483999729156494,-1.0144000053405762,-1.5106375217437744
303.9288,-0.4287927746772766,-0.5935598611831665,9.228375434875488,-0.28292495012283325,-0.9822359085083008,-1.5807855129241943
303.9454,-0.4773242771625519,-0.11127607524394989,9.397622108459473,-0.2970259189605713,-0.8743727803230286,-1.5583999156951904
303.9621,-0.900414764881134,0.6165817975997925,9.522046089172363,-0.3234028220176697,-0.7922918200492859,-1.6422362327575684
303.9788,-1.1851680278778076,1.5413081645965576,9.820832252502441,-0.34603628516197205,-0.7582574486732483,-1.6526657342910767
303.9954,-1.3332438468933105,2.0493476390838623,9.84057331085205,-0.33713993430137634,-0.7516274452209473,-1.5847195386886597
304.0121,-1.3444465398788452,2.390662908554077,9.797496795654297,-0.31603750586509705,-0.7654538154602051,-1.4048269987106323
304.0288,-1.1589504480361938,2.84980845451355,9.749715805053711,-0.30971089005470276,-0.7785613536834717,-1.1635794639587402
304.0454,-1.3961236476898193,2.8117055892944336,10.207693099975586,-0.29592132568359375,-0.7279860973358154,-1.0279481410980225
304.0621,-1.6415584087371826,2.0978848934173584,10.498183250427246,-0.24407285451889038,-0.6401233077049255,-0.8782482147216797
304.0788,-1.1181292533874512,1.2731049060821533,10.402447700500488,-0.18340739607810974,-0.583728551864624,-0.7343442440032959
304.0954,-0.5475397706031799,1.0112251043319702,10.760329246520996,-0.1419430524110794,-0.5387609601020813,-0.6849865317344666
304.1121,-0.5581138134002686,1.639373779296875,11.35265064239502,-0.12421360611915588,-0.4533354640007019,-0.7276404500007629
304.1288,-0.7328497171401978,2.645183801651001,12.062322616577148,-0.07290312647819519,-0.3044274151325226,-0.6668068170547485
304.1454,-0.47236767411231995,2.9062936305999756,12.26143741607666,0.055274639278650284,-0.07451530545949936,-0.5561647415161133
304.1621,0.22290492057800293,2.1913673877716064,12.12735652923584,0.22778911888599396,0.25324875116348267,-0.3636075258255005
304.1788,1.0347543954849243,0.8737013339996338,11.463048934936523,0.3692052662372589,0.573492169380188,-0.23556461930274963
304.1954,2.471750020980835,-0.5674381256103516,11.251580238342285,0.415258526802063,0.9516593813896179,-0.04064611345529556
304.2121,3.499706268310547,-1.922806978225708,10.75125503540039,0.33835914731025696,1.5194748640060425,0.003895006375387311
304.2288,3.715951681137085,-3.3002641201019287,9.995513916015625,0.23307055234909058,2.012977123260498,-0.3889080882072449
304.2454,3.243112802505493,-4.030227184295654,10.139724731445312,0.1322271227836609,2.4879496097564697,-0.9402637481689453
304.2621,1.7503468990325928,-3.2725117206573486,11.220064163208008,0.11043789237737656,2.723904609680176,-1.6924299001693726
304.2788,-0.6752950549125671,-1.7147237062454224,12.377485275268555,0.24467384815216064,2.919499158859253,-2.3213651180267334
304.2954,-3.1646525859832764,-0.3760030269622803,12.635573387145996,0.45532599091529846,2.6862151622772217,-2.5395727157592773
304.3121,-3.8292291164398193,0.3113756477832794,12.177315711975098,0.5770378708839417,2.2159931659698486,-2.365938186645508
304.3288,-3.4986932277679443,0.8128204941749573,13.3603515625,0.7808472514152527,1.9084746837615967,-1.816019058227539
304.3454,-3.764190673828125,1.420949101448059,12.951546669006348,0.8898068070411682,1.8407236337661743,-0.9490591287612915
304.3621,-3.1699254512786865,1.1347321271896362,12.52539348602295,0.9371193647384644,1.8912816047668457,0.023372061550617218
304.3788,-1.8903528451919556,1.680830955505371,11.907160758972168,0.9719545245170593,1.9146181344985962,0.6817581057548523
304.3954,-1.237428069114685,2.2848169803619385,10.82856559753418,0.9566476345062256,1.9140344858169556,1.132692813873291
304.4121,-0.9336897730827332,1.9322831630706787,9.954939842224121,0.9448372721672058,1.771991491317749,1.2622157335281372
304.4288,-1.0572872161865234,1.6152262687683105,9.433860778808594,0.890240490436554,1.5883880853652954,1.318190336227417
304.4454,-1.246778964996338,1.5035264492034912,8.852715492248535,0.8492529392242432,1.4592682123184204,1.4576938152313232
304.4621,-1.9912766218185425,1.5400142669677734,8.503774642944336,0.8631178736686707,1.3467538356781006,1.8095132112503052
304.4788,-2.5619187355041504,1.0194624662399292,8.354859352111816,0.9080407023429871,1.3550872802734375,2.5703580379486084
304.4954,-2.802274703979492,0.7869535684585571,7.9374494552612305,0.8984202742576599,1.2965582609176636,3.2951419353485107
304.5121,-1.6336252689361572,-0.8890904784202576,7.404982566833496,0.8165242075920105,1.0487977266311646,3.450815439224243
304.5288,0.11836566776037216,-2.914128303527832,6.5276055335998535,0.7330429553985596,0.7188491225242615,2.8881092071533203
304.5454,2.28753399848938,-3.481266736984253,5.833098888397217,0.5984271168708801,0.37163758277893066,1.8158689737319946
304.5621,3.773604154586792,-3.360391139984131,5.070992469787598,0.41078242659568787,0.13869816064834595,0.4287808835506439
304.5788,3.629905939102173,-2.8175363540649414,4.671069622039795,0.18361830711364746,-0.11371758580207825,-0.715870201587677
304.5954,2.7283360958099365,-2.5907981395721436,4.594340801239014,-0.030629131942987442,-0.4047624468803406,-1.3072019815444946
304.6121,1.9914393424987793,-2.007223129272461,5.759708404541016,-0.22248005867004395,-0.6917180418968201,-1.3332682847976685
304.6288,1.8442983627319336,-1.244485855102539,6.909425258636475,-0.35242360830307007,-0.7820183038711548,-1.115452766418457
304.6454,1.8255723714828491,-0.2680811583995819,8.126070022583008,-0.5088082551956177,-0.9035329818725586,-0.9587369561195374
304.6621,3.014183521270752,-0.03243415802717209,9.100226402282715,-0.6508815884590149,-0.9087173342704773,-0.870705246925354
304.6788,4.508144855499268,2.446230888366699,10.42120361328125,-0.6096329689025879,-0.7006387114524841,-0.6318221688270569
304.6954,6.75980806350708,4.241992950439453,11.22930908203125,-0.2518713176250458,-0.20394030213356018,-0.04339740797877312
304.7121,8.930285453796387,5.12424373626709,11.971927642822266,0.23089320957660675,0.32003191113471985,0.5658192038536072
304.7288,8.42248249053955,3.8846595287323,11.625990867614746,0.5184565186500549,0.258768767118454,0.5719991326332092
304.7454,6.102734565734863,3.3754162788391113,10.830571174621582,0.6336574554443359,-0.056982383131980896,-0.054936736822128296
304.7621,4.461828231811523,2.6488037109375,9.33369255065918,0.5846261978149414,-0.09681621938943863,-0.3367479741573334
304.7788,4.1827778816223145,1.8712611198425293,7.329734802246094,0.3863542079925537,-0.16169163584709167,-0.5621079802513123
304.7954,3.0105373859405518,0.5937083959579468,6.382891654968262,0.20011590421199799,-0.44755423069000244,-0.7826723456382751
304.8121,1.8373689651489258,-0.06322234123945236,7.191390037536621,-0.038681063801050186,-0.7451817989349365,-0.7525363564491272
304.8288,2.429141044616699,-0.5236145853996277,10.98183822631836,-0.46490275859832764,-1.0278831720352173,-0.2962522804737091
304.8454,2.912569046020508,0.5688012838363647,16.44814109802246,-0.6256293058395386,-0.8193302750587463,0.6762325763702393
304.8621,2.5146644115448,5.3192315101623535,16.705656051635742,-0.08309229463338852,0.1167067363858223,2.2609949111938477
304.8788,2.6354453563690186,6.373933792114258,11.659017562866211,0.7573540210723877,0.17473897337913513,3.6693813800811768
304.8954,1.4098609685897827,2.1767494678497314,8.926163673400879,0.8086232542991638,-0.35578760504722595,3.027597188949585
304.9121,-0.7225131392478943,-1.9977154731750488,7.615701675415039,0.6200454831123352,-0.31146201491355896,1.7517483234405518
304.9288,-0.2230324000120163,-4.410756587982178,5.347129821777344,0.4015142023563385,-0.48519137501716614,0.8593518733978271
304.9454,0.393233984708786,-4.361026763916016,5.218240737915039,0.11999915540218353,-0.9680736064910889,0.1892373412847519
304.9621,0.465339720249176,-3.0154144763946533,7.094771862030029,-0.08205480128526688,-1.2219492197036743,-0.4392528533935547
304.9788,-0.7806416749954224,-1.5134183168411255,9.330081939697266,-0.18168845772743225,-1.1925846338272095,-1.001741886138916
304.9954,-0.8111410737037659,0.030347714200615883,11.242483139038086,-0.18245376646518707,-1.0362786054611206,-1.1439383029937744
305.0121,-0.14331208169460297,1.430761694908142,11.691234588623047,-0.13646680116653442,-0.8282145261764526,-1.1563512086868286
305.0288,-0.3346541225910187,2.8688337802886963,11.236495018005371,0.009960412979125977,-0.6351112127304077,-0.9029005765914917
305.0454,-0.6921005249023438,3.485163927078247,10.153199195861816,0.16574186086654663,-0.6126369833946228,-0.5805011987686157
305.0621,-1.1546744108200073,2.817120313644409,9.732983589172363,0.19219861924648285,-0.6726234555244446,-0.5317471623420715
305.0788,-1.2455557584762573,2.223485231399536,9.657979965209961,0.14763551950454712,-0.5716888308525085,-0.5768423676490784
305.0954,-0.826714038848877,1.7080662250518799,9.49395751953125,0.08482041954994202,-0.4420053958892822,-0.5123258829116821
305.1121,-0.1067994087934494,0.9802482724189758,9.565584182739258,0.02685300074517727,-0.39319777488708496,-0.4687018096446991
305.1288,0.3661172091960907,0.2140263020992279,9.704108238220215,0.0025135427713394165,-0.4476422965526581,-0.7134150862693787
305.1454,0.3247149586677551,-0.10736605525016785,9.816540718078613,-0.010108515620231628,-0.5060003995895386,-1.1013990640640259
305.1621,0.12833870947360992,-0.11950469762086868,9.400510787963867,-0.04545535147190094,-0.49329814314842224,-1.429168462753296
305.1788,0.12690672278404236,0.017150145024061203,9.140189170837402,-0.12287918478250504,-0.4689564108848572,-1.7767932415008545
305.1954,0.04311623424291611,0.6383618116378784,9.12520694732666,-0.2233298271894455,-0.49669942259788513,-2.0852432250976562
305.2121,-0.16221974790096283,1.484021544456482,9.626472473144531,-0.28280138969421387,-0.4661481976509094,-2.2119226455688477
305.2288,-0.6445170640945435,2.4594757556915283,10.027366638183594,-0.2603098750114441,-0.35861915349960327,-2.1018903255462646
305.2454,-0.9088742733001709,3.0592169761657715,10.255841255187988,-0.18752047419548035,-0.22140654921531677,-1.797977328300476
305.2621,-0.6933250427246094,3.010223150253296,10.186567306518555,-0.10042046010494232,-0.05223258212208748,-1.483503818511963
305.2788,-0.026094041764736176,2.7660465240478516,10.126386642456055,-0.0783994197845459,0.06567134708166122,-1.313286542892456
305.2954,0.40555837750434875,2.028846263885498,9.803640365600586,-0.03955300524830818,0.1637464314699173,-1.3210697174072266
305.3121,0.4398112893104553,1.1864877939224243,9.674715042114258,-0.04355991259217262,0.13344164192676544,-1.4770619869232178
305.3288,0.5758852362632751,0.587783694267273,9.667028427124023,-0.06847546994686127,0.14103364944458008,-1.5789049863815308
305.3454,0.7062664031982422,0.17773528397083282,9.681624412536621,-0.11951674520969391,0.19960680603981018,-1.696990728378296
305.3621,0.5896010994911194,7.191040640464053e-05,9.626180648803711,-0.1662646383047104,0.26977837085723877,-1.945813536643982
305.3788,0.3064710199832916,0.18733914196491241,9.626570701599121,-0.21134084463119507,0.3182932436466217,-2.1841232776641846
305.3954,-0.1046409085392952,0.6412761807441711,9.836277961730957,-0.25867152214050293,0.3719434142112732,-2.357384443283081
305.4121,-0.6138488054275513,1.2595304250717163,10.051843643188477,-0.2954021394252777,0.43783900141716003,-2.4515960216522217
305.4288,-1.3881096839904785,1.6267411708831787,9.791910171508789,-0.3070237338542938,0.4666507840156555,-2.434243679046631
305.4454,-1.4429214000701904,1.9056354761123657,9.828169822692871,-0.3242461085319519,0.4358026087284088,-2.430318593978882
305.4621,-0.9933695793151855,2.1698122024536133,9.81140422821045,-0.3604677617549896,0.3989320397377014,-2.39794659614563
305.4788,-0.7398703098297119,2.0819835662841797,10.016175270080566,-0.4124332070350647,0.3418771028518677,-2.334510564804077
305.4955,-0.6076257824897766,1.8286616802215576,10.091602325439453,-0.4419533312320709,0.30992835760116577,-2.245819091796875
305.5121,-0.3236045837402344,1.712881326675415,10.09423828125,-0.4670494794845581,0.29386472702026367,-2.1782000064849854
305.5288,-0.0328427217900753,1.6373289823532104,10.164013862609863,-0.4759547710418701,0.29640766978263855,-2.1863856315612793
305.5455,0.21379819512367249,1.81405508518219,10.117218017578125,-0.4570184350013733,0.33310189843177795,-2.207573652267456
305.5621,0.005025047343224287,2.0955207347869873,10.121912002563477,-0.4037717580795288,0.4044371545314789,-2.1213314533233643
305.5788,-0.7006224393844604,2.230318069458008,10.014007568359375,-0.32645583152770996,0.5136935114860535,-1.8685189485549927
305.5955,-0.11266178637742996,2.327322244644165,10.061933517456055,-0.2366657704114914,0.6044613718986511,-1.647318959236145
305.6121,0.4916578233242035,1.9895514249801636,9.76541519165039,-0.17201322317123413,0.7897262573242188,-1.5857608318328857
305.6288,0.4484623670578003,0.9087851047515869,9.154316902160645,-0.1720571517944336,0.9002294540405273,-1.5330126285552979
305.6455,0.20127303898334503,-0.12961995601654053,8.654295921325684,-0.24787887930870056,0.9930533170700073,-1.7128841876983643
305.6621,-0.28354376554489136,-0.7987248301506042,8.54272174835205,-0.3552660644054413,1.0050688982009888,-2.1121177673339844
305.6788,-0.776626706123352,-1.4330253601074219,9.004179954528809,-0.4346279203891754,0.9241099953651428,-2.5540034770965576
305.6955,-0.7297433018684387,-1.8884944915771484,9.944082260131836,-0.4608978033065796,0.831025242805481,-2.956576347351074
305.7121,-0.4131397604942322,-2.315890073776245,10.693714141845703,-0.47058239579200745,0.7615537643432617,-3.282527208328247
305.7288,-0.1093076840043068,-2.6217048168182373,11.070941925048828,-0.48708465695381165,0.6674037575721741,-3.5492286682128906
305.7455,0.06091933324933052,-2.5406363010406494,11.321504592895508,-0.49305808544158936,0.5863498449325562,-3.762260913848877
305.7621,0.4054230749607086,-2.043178081512451,11.427651405334473,-0.49732133746147156,0.5367629528045654,-4.045027256011963
305.7788,0.41614338755607605,-1.2794405221939087,11.458258628845215,-0.47719642519950867,0.530632734298706,-4.246022701263428
305.7955,0.08454877138137817,-0.37356874346733093,11.378902435302734,-0.44321587681770325,0.5789087414741516,-4.1088480949401855
305.8121,-0.2752533555030823,0.5580976605415344,11.019296646118164,-0.38667240738868713,0.6632230281829834,-3.5779807567596436
305.8288,-0.32965677976608276,1.4632034301757812,10.34716796875,-0.3007985055446625,0.7243110537528992,-2.8988592624664307
305.8455,-0.2390204519033432,2.180758476257324,9.373011589050293,-0.2696080207824707,0.7569161057472229,-2.417299270629883
305.8621,-0.2335580736398697,2.42630934715271,8.709466934204102,-0.343136727809906,0.7077944874763489,-2.086240768432617
305.8788,0.1374366581439972,2.240056276321411,8.706133842468262,-0.4829092025756836,0.6665759086608887,-2.0476295948028564
305.8955,0.9429221153259277,2.1635777950286865,8.448665618896484,-0.5963670015335083,0.6529993414878845,-2.2880825996398926
305.9121,1.7670214176177979,1.9392426013946533,8.506050109863281,-0.6741544604301453,0.5699224472045898,-2.256396532058716
305.9288,2.5415964126586914,1.3524699211120605,8.66611099243164,-0.6903241872787476,0.6412886381149292,-1.9609941244125366
305.9455,2.987475633621216,0.6238075494766235,8.608269691467285,-0.711656391620636,0.7460616827011108,-1.494335651397705
305.9621,3.0951404571533203,-0.2904741168022156,8.216713905334473,-0.7751678228378296,0.6932390332221985,-1.0000404119491577
305.9788,3.1080069541931152,-1.0673341751098633,8.443806648254395,-0.846219003200531,0.509751558303833,-0.7660747766494751
305.9955,2.808180093765259,-1.163655161857605,8.708813667297363,-0.8615298867225647,0.5096985101699829,-0.9975188970565796
306.0121,3.1575887203216553,-0.839913010597229,8.818794250488281,-0.9276638031005859,0.4276602864265442,-1.2227771282196045
306.0288,3.01603627204895,-0.9502198696136475,9.26616096496582,-1.0859980583190918,0.4449392259120941,-1.487300992012024
306.0455,2.8489623069763184,-0.9153379201889038,9.135868072509766,-1.252252221107483,0.3838626742362976,-1.871166706085205
306.0621,2.803039789199829,-0.8030356168746948,9.250481605529785,-1.3169019222259521,0.34481754899024963,-2.136173725128174
306.0788,3.2527308464050293,-0.5615466833114624,8.902188301086426,-1.3080638647079468,0.3118574321269989,-2.4044222831726074
306.0955,3.4523463249206543,-0.35631096363067627,8.782066345214844,-1.254896879196167,0.21685178577899933,-2.7430434226989746
306.1121,3.1574511528015137,-0.2737499177455902,8.675826072692871,-1.1640682220458984,0.09664589166641235,-3.0213611125946045
306.1288,2.5150532722473145,-0.08375509828329086,8.394963264465332,-1.0760802030563354,-0.051384784281253815,-3.1645755767822266
306.1455,2.1126058101654053,0.4482543468475342,8.055014610290527,-1.0226736068725586,-0.16644732654094696,-3.288059711456299
306.1621,2.4332919120788574,1.1407991647720337,7.990293025970459,-0.9751430153846741,-0.25856903195381165,-3.3393473625183105
306.1788,2.7723679542541504,1.6034667491912842,8.158844947814941,-0.8536369204521179,-0.25924649834632874,-3.223876476287842
306.1955,3.032238245010376,1.6503368616104126,8.456009864807129,-0.6924352645874023,-0.22127918899059296,-3.0702080726623535
306.2121,3.443694591522217,1.891408920288086,8.728978157043457,-0.5226496458053589,-0.16617035865783691,-2.743840217590332
306.2288,3.9038774967193604,2.3501453399658203,8.673493385314941,-0.37140217423439026,-0.15517765283584595,-2.430583953857422
306.2455,3.9425368309020996,2.596953868865967,9.055388450622559,-0.24722133576869965,-0.21382343769073486,-2.255808115005493
306.2621,3.889570951461792,2.9250898361206055,9.12572956085205,-0.12269096076488495,-0.2286863923072815,-2.0899224281311035
306.2788,3.620173931121826,3.5338757038116455,8.673645973205566,-0.014796980656683445,-0.27661457657814026,-1.7423545122146606
306.2955,3.1268510818481445,3.6001698970794678,8.371207237243652,0.03768184781074524,-0.4066564440727234,-1.216744303703308
306.3121,2.9004056453704834,2.2518458366394043,9.089669227600098,-0.008236397989094257,-0.5844808220863342,-0.8458877801895142
306.3288,2.707247495651245,1.4535311460494995,9.900748252868652,-0.04175058379769325,-0.7069643139839172,-0.570945680141449
306.3455,3.1849348545074463,2.7291295528411865,11.194974899291992,0.02088935300707817,-0.7298188805580139,0.002930303104221821
306.3621,3.612028121948242,5.0655198097229,12.585221290588379,0.26595544815063477,-0.5390528440475464,1.0004788637161255
306.3788,3.645684003829956,5.572533130645752,12.425006866455078,0.6412895917892456,-0.43972262740135193,2.408867120742798
306.3955,3.4775776863098145,0.5957805514335632,11.603767395019531,0.7568977475166321,-0.2912963628768921,2.94490385055542
306.4121,3.121101140975952,-4.683455467224121,10.113082885742188,0.600334644317627,-0.0041972980834543705,2.3033244609832764
306.4288,3.287965774536133,-6.546135902404785,8.126737594604492,0.336158812046051,-0.00017626065528020263,1.0376843214035034
306.4455,2.451465129852295,-6.402106761932373,6.5940399169921875,0.13284379243850708,-0.2815331816673279,-0.39595818519592285
306.4621,1.459953784942627,-4.8877034187316895,6.40260124206543,0.042834702879190445,-0.7452231049537659,-1.4804455041885376
306.4788,0.5827832818031311,-2.335719347000122,7.705290794372559,0.009426417760550976,-1.1314520835876465,-2.312371253967285
306.4955,-0.923406183719635,0.9415741562843323,9.387553215026855,-0.007753909099847078,-1.263642430305481,-2.654536247253418
306.5121,-2.3152785301208496,3.858285427093506,10.325920104980469,-0.03390437737107277,-1.1669549942016602,-2.4514195919036865
306.5288,-2.894749164581299,5.45102071762085,10.417275428771973,-0.0368790328502655,-1.0052289962768555,-1.8301966190338135
306.5455,-2.678328037261963,5.542630195617676,10.238537788391113,-0.04419345781207085,-0.8252495527267456,-1.0593340396881104
306.5621,-1.9829444885253906,5.076536178588867,9.94880485534668,-0.06481403112411499,-0.7018774747848511,-0.3403424322605133
306.5788,-1.0442506074905396,3.5509097576141357,9.935309410095215,-0.043530676513910294,-0.6224054098129272,0.08009350299835205
306.5955,-0.00459289038553834,2.1254947185516357,9.72707462310791,0.03132481127977371,-0.6094127893447876,0.1784459799528122
306.6121,1.0612419843673706,1.08507239818573,9.412922859191895,0.09298311918973923,-0.657610297203064,-0.04924340918660164
306.6288,1.5721235275268555,0.2960529327392578,9.163228988647461,0.09423491358757019,-0.6894527077674866,-0.5089712738990784
306.6455,1.6752277612686157,-0.06693196296691895,9.087069511413574,0.027212858200073242,-0.6874721050262451,-1.0106570720672607
306.6621,1.0848489999771118,0.3842964470386505,9.260007858276367,-0.058038316667079926,-0.6146367192268372,-1.322652816772461
306.6788,0.28766581416130066,1.1105999946594238,9.299149513244629,-0.10432907938957214,-0.5022007822990417,-1.4083493947982788
306.6955,-0.16401593387126923,1.8302226066589355,9.654435157775879,-0.11727062612771988,-0.429291307926178,-1.2804484367370605
306.7121,-0.4259263873100281,2.2775919437408447,9.805547714233398,-0.08278018236160278,-0.366188108921051,-1.050889015197754
306.7288,-0.7122625708580017,2.137559413909912,9.652144432067871,-0.020497271791100502,-0.3425895571708679,-0.8151670694351196
306.7455,-0.5456313490867615,1.656581163406372,9.51417350769043,0.021222315728664398,-0.35186827182769775,-0.6188149452209473
306.7621,-0.24802635610103607,0.9507839679718018,9.48176383972168,-0.007656416390091181,-0.3911849856376648,-0.5222228765487671
306.7788,-0.2722141742706299,0.3713700771331787,9.28905200958252,-0.07901021093130112,-0.4466831088066101,-0.5492561459541321
306.7955,-0.35257136821746826,0.09984829276800156,9.334061622619629,-0.15605220198631287,-0.5143014192581177,-0.629786491394043
306.8121,-0.4185340106487274,0.21122397482395172,9.37806224822998,-0.2228356897830963,-0.5882898569107056,-0.7621489763259888
306.8288,-0.46996569633483887,0.6680772304534912,9.346207618713379,-0.2824220359325409,-0.7008931040763855,-0.8409437537193298
306.8455,-0.5639293789863586,1.1504780054092407,9.487464904785156,-0.33575761318206787,-0.8430463075637817,-0.8685669898986816
306.8621,-0.6627408862113953,1.491086721420288,9.531417846679688,-0.374511182308197,-0.9730772376060486,-0.8350480198860168
306.8788,-0.5428798198699951,1.5339363813400269,9.324145317077637,-0.3995567262172699,-1.0896427631378174,-0.7893986105918884
306.8955,-0.2129945456981659,1.3027116060256958,9.312445640563965,-0.4341545104980469,-1.2004379034042358,-0.8067336082458496
306.9121,0.12414385378360748,1.0164787769317627,9.502569198608398,-0.46464669704437256,-1.2723093032836914,-0.8795768618583679
306.9288,0.16564694046974182,0.7531554102897644,9.664803504943848,-0.4634179174900055,-1.2681221961975098,-0.9531491994857788
306.9455,0.46412843465805054,0.5366341471672058,9.754246711730957,-0.40769001841545105,-1.1569268703460693,-0.9304782748222351
306.9621,0.9674022793769836,0.642392098903656,9.98827838897705,-0.3533463776111603,-0.9525202512741089,-0.8719286918640137
306.9788,0.7530060410499573,1.265181303024292,10.288928985595703,-0.35287922620773315,-0.7304865121841431,-0.9012243151664734
306.9955,-0.518286943435669,2.1846017837524414,10.24256706237793,-0.38803631067276,-0.5846245884895325,-0.9800195097923279
307.0121,-1.8320146799087524,2.9766604900360107,10.452406883239746,-0.40685930848121643,-0.5727178454399109,-0.902339518070221
307.0288,-2.2304112911224365,2.748944044113159,10.852456092834473,-0.3527989685535431,-0.5634430646896362,-0.6979612112045288
307.0455,-1.7422441244125366,1.7537786960601807,10.598074913024902,-0.2604610025882721,-0.5445844531059265,-0.5256287455558777
307.0621,-1.0345548391342163,0.4661432206630707,10.175963401794434,-0.22719769179821014,-0.5261207222938538,-0.406925231218338
307.0788,-0.35562604665756226,-0.11227438598871231,10.492837905883789,-0.2684718668460846,-0.4698401987552643,-0.3826954960823059
307.0955,-0.14481860399246216,0.19332851469516754,11.111459732055664,-0.3120982050895691,-0.34910762310028076,-0.46918609738349915
307.1121,-0.3674165904521942,1.2581154108047485,11.469842910766602,-0.3035801351070404,-0.20464909076690674,-0.4829597771167755
307.1288,-0.6919257640838623,2.145052909851074,11.350032806396484,-0.2273879200220108,-0.07705871760845184,-0.37503987550735474
307.1455,-0.6433519721031189,2.403346061706543,11.381593704223633,-0.10071005672216415,0.16188877820968628,-0.23513908684253693
307.1622,-0.3644874393939972,2.0675947666168213,11.057048797607422,0.03577495366334915,0.41606107354164124,-0.04288548231124878
307.1788,0.6274829506874084,1.1147962808609009,11.399117469787598,0.1657504290342331,0.7541182637214661,0.27564817667007446
307.1955,2.0943763256073,-0.05803385376930237,11.325169563293457,0.23093773424625397,1.2453129291534424,0.6265514492988586
307.2122,3.2421278953552246,-1.0801280736923218,11.089573860168457,0.2834888696670532,1.7662956714630127,0.7890430688858032
307.2288,3.192190170288086,-1.9054958820343018,11.40328311920166,0.3413129448890686,2.2873435020446777,0.3945433497428894
307.2455,1.9992222785949707,-2.009882688522339,11.71573543548584,0.424442857503891,2.527263641357422,-0.27009445428848267
307.2622,-0.07664724439382553,-1.3628121614456177,12.007609367370605,0.5465361475944519,2.7410597801208496,-1.066450834274292
307.2788,-2.3078107833862305,-1.4909460544586182,12.164582252502441,0.665760338306427,2.650491237640381,-1.5048474073410034
307.2955,-2.6498239040374756,-1.695389986038208,12.03274154663086,0.7251073122024536,2.381077527999878,-1.5804308652877808
307.3122,-2.2153732776641846,-1.0478702783584595,12.617132186889648,0.8183201551437378,2.0467910766601562,-1.315629005432129
307.3288,-2.332648992538452,-0.2251683473587036,12.80276107788086,0.8680832982063293,1.8524913787841797,-0.8321639895439148
307.3455,-2.27058744430542,0.5958521366119385,12.543392181396484,0.9437716007232666,1.8729923963546753,-0.11920449137687683
307.3622,-1.7569310665130615,1.202542781829834,11.698835372924805,1.004927158355713,1.888486385345459,0.6665999293327332
307.3788,-1.0291169881820679,1.3006327152252197,10.81962776184082,1.0243128538131714,1.8452889919281006,0.97042316198349
307.3955,-1.0154476165771484,2.0368285179138184,10.290817260742188,0.9780977964401245,1.8088246583938599,1.1401265859603882
307.4122,-1.2376161813735962,1.6092501878738403,9.395434379577637,0.902085542678833,1.7699843645095825,1.379836916923523
307.4288,-1.5171244144439697,1.0879241228103638,9.043989181518555,0.857399582862854,1.7138561010360718,1.5577807426452637
307.4455,-2.1897799968719482,1.3843713998794556,8.752697944641113,0.9120357632637024,1.7148618698120117,2.0581247806549072
307.4622,-2.6731019020080566,1.5682711601257324,8.418338775634766,0.9556692838668823,1.6852829456329346,2.925434112548828
307.4788,-2.197880506515503,0.1441538780927658,8.139827728271484,0.9306217432022095,1.6014045476913452,3.5160279273986816
307.4955,-0.7741127610206604,-2.150383472442627,7.476185321807861,0.86562180519104,1.3990707397460938,3.3285608291625977
307.5122,1.0817790031433105,-3.4956908226013184,6.598024845123291,0.7164667248725891,1.0778700113296509,2.463087797164917
307.5288,2.6984286308288574,-3.6194584369659424,5.568631172180176,0.5703296661376953,0.7811952233314514,1.258905053138733
307.5455,3.234848976135254,-2.9226348400115967,5.131634712219238,0.40819111466407776,0.44714412093162537,0.05424949526786804
307.5622,3.0011332035064697,-2.3178553581237793,4.845766067504883,0.2519879639148712,0.1685096025466919,-0.7687822580337524
307.5788,2.159306526184082,-1.6857455968856812,4.975076675415039,0.09888270497322083,-0.20229382812976837,-1.1191599369049072
307.5955,1.476868748664856,-1.0575282573699951,5.857037544250488,-0.012717959471046925,-0.4618333876132965,-1.0706640481948853
307.6122,1.1796493530273438,-0.5926300287246704,6.093380451202393,-0.11850187182426453,-0.6136513352394104,-0.9666701555252075
307.6288,1.3593499660491943,0.21175748109817505,6.857460975646973,-0.2534361779689789,-0.8321681618690491,-0.8212896585464478
307.6455,2.0329606533050537,1.4697312116622925,7.8963422775268555,-0.3668907582759857,-0.8642836809158325,-0.44258955121040344
307.6622,3.3204357624053955,3.4913735389709473,9.309611320495605,-0.43862202763557434,-0.7134804129600525,0.31129759550094604
307.6788,5.214995861053467,6.048638820648193,11.303958892822266,-0.22681400179862976,-0.26197129487991333,1.5172396898269653
307.6955,8.426572799682617,5.667296886444092,11.84168529510498,0.19987718760967255,0.22836104035377502,2.4610562324523926
307.7122,9.358906745910645,3.531280517578125,11.718609809875488,0.4086468517780304,0.011797440238296986,2.3101816177368164
307.7288,8.378829002380371,1.0973868370056152,10.94572925567627,0.4507007300853729,-0.11062753200531006,1.6654369831085205
307.7455,6.576070785522461,-0.17495496571063995,9.408839225769043,0.4917401075363159,-0.17077645659446716,1.2134137153625488
307.7622,5.075243949890137,-1.1612720489501953,7.957831382751465,0.5867356061935425,-0.2735762596130371,0.6924011707305908
307.7788,2.814397096633911,-1.6483818292617798,6.149448871612549,0.6511229276657104,-0.5056296586990356,-0.002513660816475749
307.7955,2.2686314582824707,-1.7943304777145386,5.8970770835876465,0.48784101009368896,-0.899724543094635,-0.5487949252128601
307.8122,4.51370096206665,-0.9527561068534851,9.6381196975708,0.013278617523610592,-1.3303887844085693,-0.6873683333396912
307.8288,4.804133415222168,2.249466896057129,18.89217758178711,-0.3504679501056671,-1.1436588764190674,-0.2725721597671509
307.8455,3.507493019104004,6.649230480194092,20.98262596130371,0.4842417240142822,0.15702246129512787,2.096884250640869
307.8622,4.10180139541626,3.22013521194458,11.019994735717773,1.2024075984954834,0.09917045384645462,3.792879104614258
307.8788,1.1441006660461426,-1.0400018692016602,6.232381820678711,0.8926408290863037,-0.13023731112480164,2.6707241535186768
307.8955,-3.233574151992798,-3.583932876586914,2.2258493900299072,0.44712698459625244,-0.3698582649230957,0.29144924879074097
307.9122,-2.490046977996826,-3.7073330879211426,2.9584577083587646,0.033228304237127304,-1.202684998512268,-0.1370822936296463
307.9288,0.17495471239089966,-1.3425670862197876,6.002668857574463,-0.18347549438476562,-1.4542783498764038,-0.04081300273537636
307.9455,-1.0934722423553467,1.8127071857452393,9.510854721069336,-0.16371208429336548,-1.4682036638259888,-0.49072274565696716
307.9622,-2.576888084411621,3.7820816040039062,12.17215633392334,-0.020807072520256042,-1.5549105405807495,-0.7170943021774292
307.9788,-1.0346728563308716,3.731478214263916,12.886542320251465,0.11384648084640503,-1.287660002708435,-0.26366010308265686
307.9955,-0.29816263914108276,2.1305811405181885,10.773829460144043,0.09644404798746109,-0.9272549152374268,0.23397207260131836
308.0122,0.3519601821899414,0.8115154504776001,9.028112411499023,-0.04868156462907791,-0.8719434142112732,0.24114945530891418
308.0288,0.6511810421943665,0.5083248615264893,8.67792797088623,-0.14614903926849365,-0.8943482637405396,-0.07232654839754105
308.0455,0.5051884651184082,0.5529200434684753,8.414588928222656,-0.1687547117471695,-1.0462977886199951,-0.5212183594703674
308.0622,0.5221338272094727,0.5128554105758667,9.071514129638672,-0.15292128920555115,-1.2770462036132812,-0.7812690734863281
308.0788,0.4192899167537689,0.9010258913040161,9.902555465698242,-0.1706436425447464,-1.3926252126693726,-0.9376429915428162
308.0955,0.08271270990371704,1.266951084136963,10.169942855834961,-0.20500580966472626,-1.2906243801116943,-0.9522683620452881
308.1122,-0.23729631304740906,1.4678256511688232,9.580294609069824,-0.25511571764945984,-1.0974888801574707,-0.9413968920707703
308.1288,-0.23223921656608582,1.6577175855636597,8.972176551818848,-0.32461637258529663,-0.9960219264030457,-0.9721534848213196
308.1455,-0.05403865501284599,1.536967396736145,9.084935188293457,-0.40231412649154663,-0.9953946471214294,-1.073670506477356
308.1622,-0.05055137351155281,1.6399924755096436,9.508527755737305,-0.41471701860427856,-0.9940876960754395,-1.0612002611160278
308.1788,-0.19689148664474487,1.7492175102233887,9.71453857421875,-0.3663673996925354,-0.971235454082489,-0.9678712487220764
308.1955,-0.6387732028961182,1.7763230800628662,9.940215110778809,-0.3090916574001312,-0.9564840793609619,-0.7938452363014221
308.2122,-1.0598350763320923,1.924717903137207,10.001280784606934,-0.26420047879219055,-0.8902571201324463,-0.4820919930934906
308.2288,-0.9191860556602478,1.838226079940796,9.8045015335083,-0.24785420298576355,-0.8673722147941589,-0.2111392319202423
308.2455,-0.6660106182098389,1.3029911518096924,9.51850700378418,-0.27497726678848267,-0.902431309223175,-0.1859339326620102
308.2622,-0.5353739857673645,0.36265119910240173,9.39449691772461,-0.3421710729598999,-0.9948086738586426,-0.33509737253189087
308.2788,-0.4341239035129547,-0.5263479948043823,9.136189460754395,-0.4142318367958069,-1.1169371604919434,-0.5786561965942383
308.2955,-0.41266411542892456,-1.1511198282241821,8.895342826843262,-0.4870932102203369,-1.2448936700820923,-0.8239067196846008
308.3122,-0.3723662495613098,-1.3322490453720093,9.058847427368164,-0.5496538281440735,-1.3262295722961426,-0.9867953062057495
308.3288,-0.4802475869655609,-0.9889596104621887,9.22874927520752,-0.5831863880157471,-1.3264827728271484,-1.067603349685669
308.3455,-0.9022651314735413,-0.19069649279117584,9.3220853805542,-0.5813366770744324,-1.2854491472244263,-1.097455620765686
308.3622,-1.032078742980957,0.8158350586891174,9.396819114685059,-0.5642510652542114,-1.2178345918655396,-1.0835555791854858
308.3788,-0.9332531094551086,1.9174154996871948,9.37663459777832,-0.5348528623580933,-1.16521155834198,-1.012891411781311
308.3955,-1.2249137163162231,2.3497915267944336,9.965228080749512,-0.5245324969291687,-1.1424283981323242,-1.0150582790374756
308.4122,-1.4921236038208008,2.369274377822876,10.759467124938965,-0.4945369362831116,-1.0366939306259155,-0.8932654857635498
308.4288,-0.7468035817146301,2.366884231567383,10.841402053833008,-0.43883228302001953,-0.9169666767120361,-0.5986757278442383
308.4455,0.02602500468492508,2.0465586185455322,11.044623374938965,-0.37397369742393494,-0.8010484576225281,-0.47394445538520813
308.4622,0.5372488498687744,1.695480465888977,11.38121509552002,-0.32783055305480957,-0.677976131439209,-0.4943453073501587
308.4788,0.7721421718597412,2.01450252532959,12.241819381713867,-0.2997666895389557,-0.49325093626976013,-0.43302029371261597
308.4955,0.7102644443511963,3.0470025539398193,12.955535888671875,-0.21357570588588715,-0.25400471687316895,-0.2845800220966339
308.5122,0.7434728741645813,4.230580806732178,13.304335594177246,-0.052401792258024216,0.07059190422296524,-0.0692051500082016
308.5288,0.5908034443855286,4.341305255889893,13.696566581726074,0.1771174669265747,0.5350586771965027,0.14700616896152496
308.5455,0.5108734369277954,2.869596004486084,12.761106491088867,0.42002561688423157,1.0480047464370728,0.3854091167449951
308.5622,1.6621888875961304,0.017235416918992996,10.75650691986084,0.5619123578071594,1.5113548040390015,0.8226858973503113
308.5788,4.286646366119385,-2.4405603408813477,10.065248489379883,0.5155975222587585,2.2314014434814453,1.3255397081375122
308.5955,3.916379451751709,-3.2198119163513184,9.962250709533691,0.3688265085220337,2.6820876598358154,0.996553361415863
308.6122,1.901887059211731,-3.3273985385894775,11.539762496948242,0.24373316764831543,2.978874683380127,-0.08270327746868134
308.6288,-0.5263422131538391,-1.664176106452942,12.50360107421875,0.25954315066337585,3.1966135501861572,-1.1411843299865723
308.6455,-3.3708584308624268,-0.42781558632850647,12.5054349899292,0.3858869671821594,2.8254754543304443,-1.8590317964553833
308.6622,-4.149914741516113,0.7132195234298706,12.794508934020996,0.6140664219856262,2.2359678745269775,-2.118324041366577
308.6788,-4.136785984039307,2.401982307434082,12.887428283691406,0.9290269613265991,1.8532147407531738,-1.524273157119751
308.6955,-4.7571210861206055,3.87915301322937,13.045140266418457,1.120148777961731,1.7220572233200073,-0.4828941226005554
308.7122,-4.28974723815918,3.904010057449341,12.832501411437988,1.26621413230896,1.8154441118240356,0.8637436032295227
308.7288,-3.2117655277252197,4.396738529205322,12.244257926940918,1.298380732536316,1.8978781700134277,1.7761576175689697
308.7455,-2.808197021484375,4.376740455627441,11.797632217407227,1.3695216178894043,1.9767017364501953,2.283728837966919
308.7622,-2.590430498123169,3.820756196975708,10.311148643493652,1.3739585876464844,1.8713140487670898,2.4585602283477783
308.7788,-3.2968602180480957,3.5911169052124023,9.92197322845459,1.406659483909607,1.586796760559082,2.840204954147339
308.7955,-3.5435941219329834,2.6953866481781006,9.90526008605957,1.44696044921875,1.4270522594451904,3.467383623123169
308.8122,-3.480180025100708,2.1745598316192627,9.317209243774414,1.4009745121002197,1.3815152645111084,3.9554381370544434
308.8289,-3.6035916805267334,1.490509271621704,8.808706283569336,1.3281654119491577,1.3034989833831787,4.262126445770264
308.8455,-3.3784570693969727,-0.004378668498247862,8.256611824035645,1.2772334814071655,1.2210361957550049,4.394085884094238
308.8622,-2.2819554805755615,-2.3629565238952637,7.479861259460449,1.2304205894470215,1.0855036973953247,4.266407012939453
308.8789,-0.4715622067451477,-4.047792434692383,6.716775894165039,1.1077804565429688,0.8222613334655762,3.659048080444336
308.8955,1.4317054748535156,-4.6891865730285645,5.970121383666992,0.9192385077476501,0.5390836000442505,2.6144847869873047
308.9122,2.5055649280548096,-4.868796348571777,5.417932987213135,0.7031649351119995,0.29255935549736023,1.382569432258606
308.9289,2.6565096378326416,-4.7930521965026855,4.975659370422363,0.49126964807510376,0.057692576199769974,0.3891458809375763
308.9455,2.346569299697876,-4.654845714569092,4.709466934204102,0.23370403051376343,-0.2446981519460678,-0.21129319071769714
308.9622,1.7992949485778809,-3.9827585220336914,5.148715972900391,-0.03190532699227333,-0.4973761737346649,-0.5416052341461182
308.9789,1.6357369422912598,-2.8516979217529297,6.068052291870117,-0.23908184468746185,-0.6220356225967407,-0.6635572910308838
308.9955,1.3780808448791504,-0.7521078586578369,6.841714382171631,-0.4006870985031128,-0.7753620147705078,-0.4759918749332428
309.0122,2.0251576900482178,0.7899282574653625,9.051300048828125,-0.5186446905136108,-0.9270346760749817,0.04560127854347229
309.0289,3.08988881111145,4.421543121337891,11.752251625061035,-0.42102891206741333,-0.675580620765686,0.8253072500228882
309.0455,6.117709159851074,6.761913299560547,14.173382759094238,0.1731862872838974,0.08867917954921722,1.9805409908294678
309.0622,10.421367645263672,6.747199058532715,13.29111385345459,0.9297907948493958,0.9183924794197083,2.613741636276245
309.0789,10.537749290466309,4.369069576263428,10.321503639221191,1.0214073657989502,0.4543537497520447,2.3776066303253174
309.0955,7.530139446258545,2.6058926582336426,8.477604866027832,0.8418633341789246,-0.11676836013793945,1.124082326889038
309.1122,4.856387615203857,1.8729238510131836,7.507495403289795,0.7808159589767456,-0.4200987219810486,0.30313819646835327
309.1289,2.865549087524414,1.2624704837799072,6.283756732940674,0.7533243894577026,-0.6040971875190735,0.05717945471405983
309.1455,0.8163973093032837,0.7605512142181396,4.867091655731201,0.688380777835846,-0.7970004677772522,0.1441413015127182
309.1622,0.13083486258983612,0.04614700376987457,5.894165515899658,0.3630372881889343,-1.291655421257019,0.20638713240623474
309.1789,1.660154938697815,0.5158361196517944,12.792555809020996,-0.30357253551483154,-1.907857060432434,0.536150336265564
309.1955,3.6996707916259766,2.4355340003967285,24.38374900817871,-0.49401408433914185,-1.220903992652893,2.166356086730957
309.2122,6.454732418060303,3.0458498001098633,19.529878616333008,0.7403348088264465,0.5526068806648254,4.619466304779053
309.2289,4.146285533905029,-0.7294036746025085,9.894232749938965,1.2251222133636475,0.4926280081272125,4.235250949859619
309.2455,-1.7672497034072876,-4.579144477844238,3.8836891651153564,1.012851357460022,0.05296902731060982,1.3406742811203003
309.2622,-3.8517894744873047,-5.950139045715332,0.8978254795074463,0.5236536860466003,-1.0933202505111694,-0.626542866230011
309.2789,-1.3619775772094727,-3.3971147537231445,1.9331018924713135,0.028828214854002,-1.7488969564437866,-1.0340787172317505
309.2955,-1.1006373167037964,1.3638252019882202,6.122478008270264,-0.2496718019247055,-1.874626636505127,-1.2380162477493286
309.3122,-3.5830078125,4.112339019775391,11.53721809387207,-0.22762520611286163,-2.0071637630462646,-1.4628870487213135
309.3289,-2.901825428009033,4.646769046783447,15.754805564880371,-0.18081744015216827,-1.7476491928100586,-0.9389885663986206
309.3455,-1.0522372722625732,3.780837059020996,12.850470542907715,-0.08783311396837234,-0.9534803628921509,-0.12243390828371048
309.3622,0.10745374113321304,1.8167004585266113,9.277803421020508,-0.09928151220083237,-0.7256456017494202,0.3752344250679016
309.3789,0.3700944483280182,1.5643316507339478,8.045385360717773,-0.10045428574085236,-0.8914404511451721,0.33954286575317383
309.3955,0.8047829866409302,0.8037100434303284,8.237093925476074,-0.06911563128232956,-1.1027649641036987,0.13788747787475586
309.4122,1.0052769184112549,-0.17389777302742004,9.049259185791016,-0.002760531846433878,-1.3016554117202759,-0.2608567178249359
309.4289,0.8390361666679382,-0.11264383792877197,10.41093635559082,-0.01185615174472332,-1.33967924118042,-0.5921965837478638
309.4455,0.23466578125953674,0.2962551712989807,10.321988105773926,-0.04695345088839531,-1.1138498783111572,-0.7583234906196594
309.4622,-0.3624083399772644,0.7506722807884216,9.23536205291748,-0.11099281162023544,-0.9155486822128296,-0.7969316244125366
309.4789,-0.4945268929004669,1.158640742301941,8.470234870910645,-0.19773352146148682,-0.8876219391822815,-0.8728665113449097
309.4955,-0.442592054605484,1.3667513132095337,8.25981616973877,-0.27111420035362244,-0.9651396870613098,-0.9593523144721985
309.5122,-0.2914717495441437,1.6920363903045654,9.089327812194824,-0.32451707124710083,-1.0955690145492554,-1.0269749164581299
309.5289,-0.6032987236976624,1.9493579864501953,9.73382568359375,-0.34625041484832764,-1.1025863885879517,-0.9514330625534058
309.5455,-1.2453874349594116,1.9985121488571167,10.005302429199219,-0.3465222120285034,-1.091732382774353,-0.7081748247146606
309.5622,-1.555820345878601,1.6553153991699219,9.986300468444824,-0.3387809991836548,-1.102549433708191,-0.4058648645877838
309.5789,-1.3110260963439941,1.0101906061172485,9.726581573486328,-0.3460673391819,-1.112680196762085,-0.21613357961177826
309.5955,-0.7015638947486877,0.11488830298185349,9.414512634277344,-0.3876415491104126,-1.1783277988433838,-0.22980791330337524
309.6122,-0.07401803135871887,-0.7225856781005859,9.125536918640137,-0.4535091817378998,-1.3114370107650757,-0.45382827520370483
309.6289,0.2308085411787033,-1.2332302331924438,9.068942070007324,-0.5353161692619324,-1.469696283340454,-0.8398058414459229
309.6455,-0.00020079845853615552,-1.346957802772522,9.23478889465332,-0.5991084575653076,-1.571699857711792,-1.1741104125976562
309.6622,0.0069932215847074986,-0.950855016708374,9.816351890563965,-0.6165062785148621,-1.499505877494812,-1.2826833724975586
309.6789,-0.05768788605928421,-0.09974609315395355,9.639174461364746,-0.5542529225349426,-1.2702158689498901,-1.2375575304031372
309.6955,0.1182142049074173,1.2071250677108765,9.732064247131348,-0.5002717971801758,-1.091596245765686,-1.1499677896499634
309.7122,-0.4867057204246521,2.473787784576416,10.084758758544922,-0.4663974940776825,-0.9255185723304749,-1.2579959630966187
309.7289,-1.053012728691101,3.781797409057617,10.281821250915527,-0.4207404553890228,-0.8330399394035339,-1.2380598783493042
309.7455,-1.3970621824264526,4.141174793243408,10.917362213134766,-0.32353681325912476,-0.7559364438056946,-0.983735978603363
309.7622,-1.3773136138916016,2.944730281829834,11.290668487548828,-0.1597718447446823,-0.627781331539154,-0.7188955545425415
309.7789,-0.2525917887687683,1.681301236152649,11.06949520111084,-0.03451553359627724,-0.5208240151405334,-0.5130655169487
309.7955,1.0057460069656372,1.4673553705215454,11.857148170471191,-0.026531608775258064,-0.4048433005809784,-0.3904271125793457
309.8122,1.4202629327774048,2.8131749629974365,12.987595558166504,-0.0608711801469326,-0.18678729236125946,-0.3835921585559845
309.8289,1.0137741565704346,4.327989101409912,13.266463279724121,0.018791895359754562,0.12459687143564224,-0.3055608868598938
309.8455,0.7302126884460449,4.288784503936768,13.921097755432129,0.22394326329231262,0.5745682120323181,0.033375535160303116
309.8622,1.0742671489715576,2.3223748207092285,12.659557342529297,0.43254929780960083,1.1062591075897217,0.45196256041526794
309.8789,3.060732841491699,-0.5729939341545105,10.636595726013184,0.5065585970878601,1.7748945951461792,1.0901637077331543
309.8955,4.98504114151001,-2.338733196258545,10.173507690429688,0.3944244682788849,2.3941421508789062,1.554284930229187
309.9122,3.3055124282836914,-3.0746026039123535,10.665299415588379,0.26775625348091125,2.7231838703155518,0.7983930706977844
309.9289,1.051867127418518,-2.7189366817474365,12.14165210723877,0.20666702091693878,3.0343434810638428,-0.16209320724010468
309.9455,-2.1389665603637695,-1.0184866189956665,12.636717796325684,0.2680571675300598,3.081651210784912,-0.9385849237442017
309.9622,-4.348413944244385,-0.038390930742025375,13.00296401977539,0.4370756447315216,2.6770832538604736,-1.6942821741104126
309.9789,-4.369943141937256,1.6894820928573608,13.0993013381958,0.6785629391670227,2.2699034214019775,-1.6329197883605957
309.9955,-4.028448581695557,2.8765573501586914,13.09912109375,0.904535710811615,1.996902346611023,-0.859126091003418
310.0122,-4.151309490203857,3.638122081756592,12.96063232421875,1.036803126335144,1.9577207565307617,0.3092794418334961
310.0289,-2.6108932495117188,2.7846264839172363,12.511306762695312,1.1788291931152344,2.0847439765930176,1.3163450956344604
310.0455,-1.493320107460022,2.686781406402588,11.80640697479248,1.238180160522461,2.1449944972991943,1.6087549924850464
310.0622,-1.7432304620742798,2.1739165782928467,10.83523941040039,1.3390827178955078,2.1425724029541016,1.6350966691970825
310.0789,-1.8995678424835205,1.536734700202942,10.287054061889648,1.3386554718017578,1.9296329021453857,1.5232237577438354
310.0955,-2.5364208221435547,1.5166746377944946,10.305135726928711,1.320145845413208,1.7104980945587158,1.719414472579956
310.1122,-2.62127947807312,1.5946824550628662,9.775333404541016,1.2768133878707886,1.577893853187561,2.266554117202759
310.1289,-2.6169657707214355,1.5602786540985107,8.73289966583252,1.2483490705490112,1.4586337804794312,2.8217320442199707
310.1455,-2.6239407062530518,1.089201807975769,7.779738426208496,1.1998287439346313,1.282859444618225,3.3280868530273438
310.1622,-2.131460666656494,-0.4587969183921814,7.085785865783691,1.0870459079742432,1.0582115650177002,3.5180656909942627
310.1789,-1.0991110801696777,-2.172551155090332,6.225011348724365,0.9376141428947449,0.7965827584266663,3.2878196239471436
310.1955,0.549586296081543,-3.2192559242248535,5.189123630523682,0.7494004368782043,0.4703611433506012,2.641010046005249
310.2122,2.1208794116973877,-3.7217397689819336,4.536915302276611,0.5269491672515869,0.15214157104492188,1.6314109563827515
310.2289,2.5604703426361084,-3.8052406311035156,4.051565170288086,0.283899188041687,-0.09606145322322845,0.5911759734153748
310.2455,2.3122174739837646,-3.7266151905059814,3.7729508876800537,-0.014974742196500301,-0.3550182580947876,-0.1335517317056656
310.2622,1.9404544830322266,-3.8215434551239014,4.319010257720947,-0.28942450881004333,-0.5433788895606995,-0.5544223785400391
310.2789,1.795469880104065,-2.87729549407959,5.175673484802246,-0.4656938910484314,-0.6492852568626404,-0.7844334244728088
310.2955,2.1024253368377686,-0.9757199287414551,7.329896926879883,-0.5940723419189453,-0.8362358212471008,-0.7025637626647949
310.3122,2.809645414352417,1.983132243156433,10.404830932617188,-0.6283757090568542,-0.8585205674171448,-0.11453466862440109
310.3289,4.8702311515808105,6.154330730438232,14.387746810913086,-0.30245113372802734,-0.494796484708786,0.9585854411125183
310.3455,8.944628715515137,7.917518615722656,15.04544448852539,0.5919622182846069,0.2537507712841034,1.9615639448165894
310.3622,10.165716171264648,7.040555000305176,12.342700004577637,1.0059616565704346,0.2509159445762634,1.9569717645645142
310.3789,7.688018798828125,4.637718200683594,9.958405494689941,0.7499774098396301,-0.003371531143784523,1.6572613716125488
310.3955,4.829073905944824,2.5960333347320557,8.276533126831055,0.6025336980819702,-0.1675437092781067,1.5266358852386475
310.4122,2.8468310832977295,1.138593077659607,7.451391220092773,0.6528503894805908,-0.3651198446750641,1.4172743558883667
310.4289,1.594515085220337,0.02484072372317314,6.395157337188721,0.6886416673660278,-0.6004632711410522,1.0020047426223755
310.4455,1.204164981842041,-0.33784952759742737,5.377040863037109,0.5073643326759338,-1.0286321640014648,0.518058180809021
310.4622,3.522148370742798,-0.18434390425682068,10.545268058776855,-0.04420384019613266,-1.6489726305007935,0.47399917244911194
310.4789,5.173079967498779,1.5125824213027954,20.42591094970703,-0.3548898696899414,-1.156227469444275,1.70278799533844
310.4956,3.766303300857544,1.6331276893615723,20.243661880493164,0.4096551239490509,0.14239205420017242,3.975637912750244
310.5122,2.75875186920166,-1.6177639961242676,10.78855037689209,1.0239228010177612,0.424700528383255,3.7468316555023193
310.5289,-0.9125495553016663,-4.65182638168335,4.379065990447998,0.924767792224884,0.17496338486671448,1.532078742980957
310.5456,-2.924793004989624,-5.409915447235107,1.0067659616470337,0.553877055644989,-0.8425244688987732,-0.3786754608154297
310.5622,0.3941643536090851,-2.5116958618164062,2.9154958724975586,0.14952367544174194,-1.6935954093933105,-0.3937666714191437
310.5789,-0.37721922993659973,0.9373037219047546,7.122478485107422,-0.16417907178401947,-1.8819249868392944,-0.9948703646659851
310.5956,-4.002035140991211,4.350900173187256,11.422009468078613,-0.1851152777671814,-1.9179264307022095,-1.3240529298782349
310.6122,-3.0445871353149414,5.431686878204346,13.717988967895508,-0.03560031205415726,-1.703075647354126,-0.7251473665237427
310.6289,-1.308329463005066,4.010709285736084,12.44403076171875,0.06942600756883621,-1.0315483808517456,0.1296955794095993
310.6456,-0.3087262511253357,1.6502268314361572,9.354410171508789,0.016577688977122307,-0.6771975159645081,0.5897846221923828
310.6622,0.4201521873474121,0.6704804301261902,8.214327812194824,-0.10495223104953766,-0.7948780059814453,0.5253050923347473
310.6789,1.289262056350708,0.3705810010433197,8.443258285522461,-0.11949343979358673,-0.9654985070228577,0.17184875905513763
310.6956,1.5690765380859375,-0.08287228643894196,8.967447280883789,-0.060107845813035965,-1.2390843629837036,-0.3709558844566345
310.7122,0.9822609424591064,-0.10575467348098755,9.670063018798828,-0.032092783600091934,-1.380425214767456,-0.8447467684745789
310.7289,0.3147095739841461,0.17151372134685516,10.086928367614746,-0.08750320225954056,-1.3177582025527954,-0.9868029356002808
310.7456,-0.261557012796402,0.7825145721435547,9.80625057220459,-0.17457452416419983,-1.0765061378479004,-0.9060556888580322
310.7622,-0.4831508994102478,0.8953152894973755,9.124034881591797,-0.26649489998817444,-0.8614151477813721,-0.8124529719352722
310.7789,-0.25226783752441406,1.0539615154266357,8.887614250183105,-0.37958618998527527,-0.8906931281089783,-0.938697874546051
310.7956,-0.05467510223388672,1.386186122894287,9.196840286254883,-0.4615296721458435,-0.9694724678993225,-1.0739147663116455
310.8122,-0.37466156482696533,1.4916874170303345,9.598264694213867,-0.4715791344642639,-1.0932339429855347,-1.0154438018798828
310.8289,-0.8961948752403259,1.526183843612671,10.121275901794434,-0.4708247780799866,-1.1460459232330322,-0.8006207942962646
310.8456,-1.2631417512893677,1.446502685546875,9.871907234191895,-0.43806034326553345,-1.1412100791931152,-0.532512903213501
310.8622,-1.2348072528839111,1.1602318286895752,9.351222038269043,-0.43008479475975037,-1.1832481622695923,-0.34701064229011536
310.8789,-1.1319490671157837,0.777753472328186,9.022767066955566,-0.45895904302597046,-1.2686301469802856,-0.3286679685115814
310.8956,-1.035834550857544,0.5100040435791016,8.65775203704834,-0.49418962001800537,-1.3826937675476074,-0.3889097273349762
310.9122,-0.9061657190322876,0.2312646061182022,8.488640785217285,-0.5407580137252808,-1.5294380187988281,-0.5277106761932373
310.9289,-0.6822343468666077,-0.003945632837712765,8.848443031311035,-0.5812568664550781,-1.6197704076766968,-0.6788274049758911
310.9456,-0.39907583594322205,-0.1383005678653717,9.843233108520508,-0.5915113687515259,-1.5964471101760864,-0.6881304383277893
310.9622,0.017837416380643845,-0.5719824433326721,10.868693351745605,-0.5287342071533203,-1.4466482400894165,-0.6301306486129761
310.9789,1.1202096939086914,-0.46642228960990906,10.266345977783203,-0.4174079895019531,-1.2267893552780151,-0.6298384666442871
310.9956,2.2802584171295166,0.5352460145950317,9.944388389587402,-0.40498441457748413,-1.081817388534546,-0.7452004551887512
311.0122,1.0244030952453613,2.1984663009643555,10.271515846252441,-0.5092798471450806,-0.911980926990509,-1.0873531103134155
311.0289,-1.5130810737609863,3.9975757598876953,11.29533863067627,-0.591732382774353,-0.7762628793716431,-1.2166635990142822
311.0456,-2.4064791202545166,4.615436553955078,12.02857780456543,-0.43594056367874146,-0.6465017199516296,-0.7730827331542969
311.0622,-1.4638688564300537,3.2017555236816406,11.525967597961426,-0.1624487191438675,-0.5041738152503967,-0.12956072390079498
311.0789,0.241983100771904,1.6841620206832886,11.441974639892578,-0.04281153529882431,-0.3794039487838745,0.22613322734832764
311.0956,1.1859006881713867,1.9542453289031982,12.081838607788086,-0.06694119423627853,-0.20882850885391235,0.08173356205224991
311.1122,0.9425123333930969,2.899449348449707,12.766898155212402,-0.04399111866950989,0.08759398758411407,-0.11757458746433258
311.1289,0.42643073201179504,3.137610912322998,13.41684627532959,0.09608783572912216,0.44792547821998596,-0.022127073258161545
311.1456,0.3836975395679474,1.9784609079360962,12.795294761657715,0.28910019993782043,0.9584285616874695,0.39324086904525757
311.1622,2.1901915073394775,-0.12556101381778717,11.063007354736328,0.43028518557548523,1.5196257829666138,1.0199167728424072
311.1789,4.0288801193237305,-1.77034592628479,10.083269119262695,0.41022399067878723,2.1521060466766357,1.1562367677688599
311.1956,2.9001314640045166,-2.688055992126465,9.924739837646484,0.318295955657959,2.4944393634796143,0.5822686553001404
311.2122,1.7213619947433472,-2.5566437244415283,11.376830101013184,0.3343583047389984,2.78201961517334,-0.03428788483142853
311.2289,-0.9919014573097229,-1.1439021825790405,11.977771759033203,0.48526737093925476,2.9678478240966797,-0.8167381286621094
311.2456,-3.86468243598938,-0.37798529863357544,12.535835266113281,0.6665899157524109,2.6632628440856934,-1.4968278408050537
311.2622,-4.5044636726379395,0.4788827896118164,12.763136863708496,0.8272238969802856,2.268101453781128,-1.5258558988571167
311.2789,-3.519604444503784,1.5018880367279053,13.130525588989258,1.0485048294067383,2.107102155685425,-0.8251320123672485
311.2956,-3.7823078632354736,2.414252996444702,12.57978343963623,1.0989161729812622,1.9947233200073242,-0.010653618723154068
311.3122,-2.971675395965576,2.172071695327759,12.595796585083008,1.1700963973999023,2.0416300296783447,0.9249383211135864
311.3289,-1.5814064741134644,1.9458695650100708,11.986807823181152,1.2055974006652832,2.1340200901031494,1.3971766233444214
311.3456,-1.8074274063110352,2.82822847366333,11.956253051757812,1.197853684425354,2.085278272628784,1.4598153829574585
311.3622,-1.6341572999954224,1.8750771284103394,10.83896541595459,1.1958640813827515,1.9691253900527954,1.5519113540649414
311.3789,-2.2798683643341064,1.8138558864593506,10.78596019744873,1.1654919385910034,1.7253249883651733,1.7163511514663696
311.3956,-2.655954360961914,1.7165077924728394,10.471684455871582,1.197688102722168,1.5656660795211792,2.2432680130004883
311.4122,-2.87992000579834,1.9115016460418701,9.569119453430176,1.1960408687591553,1.5010299682617188,2.9197027683258057
311.4289,-2.7126057147979736,1.5022132396697998,8.53420639038086,1.1522136926651,1.4114341735839844,3.445319175720215
311.4456,-2.4970529079437256,0.32986173033714294,7.608291149139404,1.065412998199463,1.2145309448242188,3.6324665546417236
311.4622,-1.662482738494873,-1.7160463333129883,6.573587417602539,0.95662522315979,0.9440768361091614,3.444159984588623
311.4789,-0.3098243474960327,-3.146918773651123,5.604857444763184,0.7988466620445251,0.6730173230171204,2.8631937503814697
311.4956,1.2231041193008423,-3.6023032665252686,5.003001689910889,0.6150794625282288,0.42786461114883423,1.8769670724868774
311.5122,2.0097222328186035,-3.574202537536621,4.481339454650879,0.45614585280418396,0.1648322343826294,0.681670069694519
311.5289,1.8418923616409302,-3.3033909797668457,4.417019367218018,0.30816522240638733,-0.17509613931179047,-0.17237834632396698
311.5456,1.5725899934768677,-3.3330910205841064,4.592250347137451,0.14733827114105225,-0.4377707242965698,-0.550837516784668
311.5622,1.1839730739593506,-2.8735461235046387,4.926191806793213,-0.04798652604222298,-0.6571721434593201,-0.6472525596618652
311.5789,0.9005842208862305,-1.625518798828125,5.721099376678467,-0.26337477564811707,-0.8821009397506714,-0.5161909461021423
311.5956,0.9330892562866211,0.18487174808979034,7.949134826660156,-0.41989612579345703,-0.9722211360931396,0.094582200050354
311.6122,1.807246446609497,3.0397276878356934,10.0281982421875,-0.5467119216918945,-0.9646967649459839,1.0817739963531494
311.6289,5.129907608032227,5.415467262268066,12.675127983093262,-0.31488654017448425,-0.6422713994979858,2.084122896194458
311.6456,11.450489044189453,6.268300533294678,13.781375885009766,0.29505667090415955,0.22904270887374878,2.4047398567199707
311.6622,11.510340690612793,4.991881847381592,12.875054359436035,0.5811944603919983,0.4735844135284424,2.4454333782196045
311.6789,8.490574836730957,2.4704225063323975,11.511113166809082,0.5353173613548279,-0.04044176638126373,2.033831834793091
311.6956,5.413694858551025,0.4599648714065552,9.984697341918945,0.6678597927093506,-0.3407592177391052,1.2068238258361816
311.7122,2.897728204727173,-0.4779651463031769,7.836361885070801,0.8597225546836853,-0.31278982758522034,0.5664905905723572
311.7289,1.3542628288269043,-0.6585978269577026,5.536027908325195,0.7885831594467163,-0.5500853657722473,0.19181670248508453
311.7456,1.2408190965652466,-0.034225478768348694,6.501171588897705,0.41053664684295654,-1.1585557460784912,-0.08712772279977798
311.7622,2.7226181030273438,0.9019330739974976,12.844225883483887,-0.165472611784935,-1.7563387155532837,0.0911032035946846
311.7789,3.414036273956299,2.119079113006592,21.276342391967773,-0.1437368392944336,-0.8985733985900879,1.745521903038025
311.7956,4.453906536102295,0.37946760654449463,16.88044548034668,0.7148553133010864,0.5581588745117188,3.8936843872070312
311.8122,2.8874809741973877,-1.4555100202560425,8.91523551940918,0.9159483313560486,0.47191452980041504,3.0365402698516846
311.8289,-1.3017328977584839,-3.322211742401123,4.148068904876709,0.6868709325790405,0.13013210892677307,0.9409473538398743
311.8456,-3.8934381008148193,-4.610317230224609,1.663213849067688,0.3291350305080414,-0.8450233936309814,-0.4732607901096344
311.8622,-1.4841570854187012,-2.3269307613372803,3.091667890548706,-0.0762612447142601,-1.676303505897522,-0.6767635941505432
311.8789,-0.6377560496330261,1.7701033353805542,7.359534740447998,-0.28096073865890503,-2.020625114440918,-0.5263849496841431
311.8956,-2.807532548904419,4.24777364730835,11.99083137512207,-0.17946144938468933,-1.9434062242507935,-0.608614444732666
311.9122,-2.8880107402801514,4.555754661560059,14.59896469116211,-0.0374860018491745,-1.5663114786148071,-0.25420403480529785
311.9289,-1.3399404287338257,3.61575984954834,12.617228507995605,0.0011771342251449823,-0.8913131356239319,0.35998860001564026
311.9456,-0.7485142946243286,2.061633586883545,9.689130783081055,-0.022445114329457283,-0.5674877762794495,0.864786684513092
311.9622,0.11867880821228027,1.1727179288864136,8.489571571350098,-0.052770428359508514,-0.6484262943267822,0.8763688206672668
311.9789,0.9068850874900818,0.4690273404121399,8.532003402709961,-0.028381073847413063,-0.8835799098014832,0.5494292974472046
311.9956,1.2697360515594482,-0.7952990531921387,9.051193237304688,0.026427365839481354,-1.159116506576538,0.044283799827098846
312.0122,1.0631687641143799,-0.9144443869590759,9.827208518981934,-0.025605451315641403,-1.290452003479004,-0.4360543489456177
312.0289,0.5035783052444458,-0.6297617554664612,10.134881019592285,-0.13190707564353943,-1.209842562675476,-0.6367508172988892
312.0456,-0.31609150767326355,-0.11029580980539322,9.591032981872559,-0.243024080991745,-1.0192029476165771,-0.7715986967086792
312.0622,-0.8426012396812439,0.8067588210105896,8.957021713256836,-0.3359951078891754,-0.9082098603248596,-0.7888426780700684
312.0789,-0.704636812210083,1.3391659259796143,9.053810119628906,-0.40790173411369324,-0.9096254110336304,-0.7437691688537598
312.0956,-0.39325231313705444,1.6802241802215576,9.473045349121094,-0.4070058763027191,-0.9340852499008179,-0.6824415326118469
312.1122,-0.1464763581752777,1.8704570531845093,9.765243530273438,-0.3523360788822174,-0.9298505187034607,-0.5487155914306641
312.1289,-0.3558235466480255,1.932937741279602,9.832571983337402,-0.29588717222213745,-0.9284780025482178,-0.37962350249290466
312.1456,-0.717634916305542,1.8687678575515747,9.867862701416016,-0.2690967619419098,-0.9268075823783875,-0.2245950847864151
312.1623,-0.9135755300521851,1.6562432050704956,9.824949264526367,-0.267371267080307,-0.9129536151885986,-0.042238861322402954
312.1789,-0.73359614610672,1.282142162322998,9.792983055114746,-0.2779218256473541,-0.8825893998146057,0.1239374577999115
312.1956,-0.06862013787031174,0.9031729102134705,9.608932495117188,-0.2829435169696808,-0.8553882837295532,0.15816113352775574
312.2123,0.48394882678985596,0.4210245609283447,9.37668514251709,-0.29634377360343933,-0.9252766966819763,-0.007053234148770571
312.2289,0.5888314843177795,-0.11900864541530609,9.470285415649414,-0.3356254994869232,-1.0637450218200684,-0.2965475618839264
312.2456,0.6191194653511047,-0.4216964542865753,9.90151596069336,-0.39999842643737793,-1.1693235635757446,-0.49609294533729553
312.2623,0.40305352210998535,-0.3948618173599243,9.980663299560547,-0.41286787390708923,-1.1375930309295654,-0.5635913610458374
312.2789,0.24303919076919556,-0.028901388868689537,9.813103675842285,-0.3915598392486572,-1.0430108308792114,-0.5106043815612793
312.2956,0.2952217757701874,0.6195294857025146,9.692839622497559,-0.3674212396144867,-0.8848100304603577,-0.3970676064491272
312.3123,0.007261191960424185,1.3558539152145386,9.478026390075684,-0.3630598783493042,-0.7129892706871033,-0.33831092715263367
312.3289,-0.7122611999511719,1.841526985168457,9.549871444702148,-0.35045066475868225,-0.6016189455986023,-0.3643425405025482
312.3456,-0.9918423891067505,2.0999526977539062,9.892285346984863,-0.28557196259498596,-0.5163163542747498,-0.20194584131240845
312.3623,-0.9702943563461304,1.9804397821426392,9.82640266418457,-0.18956196308135986,-0.4451151192188263,0.03208087012171745
312.3789,-0.5746314525604248,1.7556877136230469,10.187527656555176,-0.0980958491563797,-0.3627051115036011,0.1996142417192459
312.3956,-0.11036012321710587,1.5616575479507446,10.654473304748535,-0.03999245911836624,-0.2475946843624115,0.15991835296154022
312.4123,0.02442092075943947,1.8558529615402222,11.183772087097168,-0.022923357784748077,-0.15415926277637482,-0.005684159696102142
312.4289,-0.07378705590963364,2.6366994380950928,12.238566398620605,0.013504899106919765,0.003827578853815794,-0.11688126623630524
312.4456,-0.6815946698188782,2.665876626968384,12.53027629852295,0.1175343468785286,0.21778592467308044,-0.05562516674399376
312.4623,-0.14930443465709686,1.6975699663162231,11.821635246276855,0.25922393798828125,0.5535708665847778,0.401195228099823
312.4789,0.7273898124694824,-0.0029879806097596884,11.353142738342285,0.2977520823478699,0.9012864828109741,0.8468125462532043
312.4956,1.3879315853118896,-2.094964027404785,10.6778564453125,0.1943531036376953,1.2990224361419678,0.9583494067192078
312.5123,2.6229753494262695,-3.5189454555511475,9.784371376037598,0.05151626467704773,1.7157623767852783,0.9811646938323975
312.5289,3.4462056159973145,-3.857837677001953,9.259156227111816,-0.1159786656498909,1.9915093183517456,0.4874630272388458
312.5456,2.803706407546997,-3.411752700805664,9.659125328063965,-0.2975286543369293,2.2185277938842773,-0.5587211847305298
312.5623,1.071498990058899,-1.6921708583831787,10.788005828857422,-0.34435516595840454,2.492483377456665,-1.4878281354904175
312.5789,-1.3914724588394165,0.39876896142959595,11.79423713684082,-0.12019898742437363,2.4782826900482178,-2.0079288482666016
312.5956,-3.721710681915283,2.733987331390381,12.228312492370605,0.16316205263137817,2.243586301803589,-2.1212520599365234
312.6123,-5.36857271194458,4.573549270629883,12.278266906738281,0.4975792169570923,1.8116116523742676,-1.591188907623291
312.6289,-6.292440414428711,5.06965446472168,12.505950927734375,0.8033853769302368,1.432008981704712,-0.4008999168872833
