Timestamp,AccX,AccY,AccZ,GyrX,GyrY,GyrZ
301.9726,-0.29312536120414734,0.44145467877388,10.000860214233398,0.023988984525203705,-0.019667426124215126,-0.013569480739533901
301.9892,-0.28621920943260193,0.44926589727401733,10.001031875610352,0.021590866148471832,-0.01990339532494545,-0.023254288360476494
302.0059,-0.31432950496673584,0.461648166179657,9.989645957946777,0.021001340821385384,-0.02142244577407837,-0.025095298886299133
302.0226,-0.319131463766098,0.4515343904495239,10.025971412658691,0.020946960896253586,-0.02387860417366028,-0.020048948004841805
302.0392,-0.3134247362613678,0.440175861120224,10.013418197631836,0.020462090149521828,-0.024660706520080566,-0.015227099880576134
302.0559,-0.33268240094184875,0.42874422669410706,9.99414348602295,0.019771836698055267,-0.024335095658898354,-0.01776600070297718
302.0726,-0.3518468737602234,0.41464710235595703,10.015519142150879,0.01995346136391163,-0.02418532595038414,-0.028789883479475975
302.0892,-0.3303888142108917,0.42983290553092957,9.999162673950195,0.021402500569820404,-0.02545798011124134,-0.02915203385055065
302.1059,-0.33980751037597656,0.43702125549316406,10.00199031829834,0.02089996077120304,-0.02397262491285801,-0.02342131733894348
302.1226,-0.31028488278388977,0.42714041471481323,10.004926681518555,0.02019711770117283,-0.023178311064839363,-0.025621643289923668
302.1392,-0.3467567265033722,0.4061446785926819,9.987156867980957,0.020694993436336517,-0.025852562859654427,-0.029979784041643143
302.1559,-0.3203681409358978,0.40337711572647095,10.00460147857666,0.02060125581920147,-0.02486177533864975,-0.03579958900809288
302.1726,-0.35736674070358276,0.4130667746067047,10.001829147338867,0.021423300728201866,-0.023829154670238495,-0.034991856664419174
302.1892,-0.3486975431442261,0.4054998755455017,10.029504776000977,0.022180790081620216,-0.022969331592321396,-0.034806180745363235
302.2059,-0.3518933057785034,0.38461804389953613,10.014259338378906,0.021427510306239128,-0.020584141835570335,-0.04010285809636116
302.2226,-0.3664102852344513,0.39670097827911377,10.01736068725586,0.020521344617009163,-0.019123855978250504,-0.04178984463214874
302.2392,-0.39019471406936646,0.4122556447982788,10.027799606323242,0.021001245826482773,-0.016887182369828224,-0.038260236382484436
302.2559,-0.3543529808521271,0.4061293601989746,9.996611595153809,0.019923020154237747,-0.014691827818751335,-0.04063340276479721
302.2726,-0.35529109835624695,0.4059775471687317,9.981374740600586,0.020843496546149254,-0.013092889450490475,-0.04343712329864502
302.2892,-0.3134593069553375,0.3972106873989105,9.998245239257812,0.02218463085591793,-0.015305005013942719,-0.04195699095726013
302.3059,-0.3301076591014862,0.390196293592453,10.009726524353027,0.023274414241313934,-0.015707213431596756,-0.03652454540133476
302.3226,-0.3055540919303894,0.37205445766448975,9.983613014221191,0.02457023225724697,-0.018815815448760986,-0.03688560053706169
302.3392,-0.2954290509223938,0.3781481385231018,9.993804931640625,0.025059137493371964,-0.020946955308318138,-0.035307180136442184
302.3559,-0.3028082251548767,0.4012075662612915,9.995949745178223,0.027751492336392403,-0.02540053240954876,-0.03282230347394943
302.3726,-0.2925926446914673,0.3789055347442627,9.991582870483398,0.027858886867761612,-0.028203822672367096,-0.032881781458854675
302.3892,-0.3347700834274292,0.364557683467865,10.016401290893555,0.027926772832870483,-0.02934785559773445,-0.03356635197997093
302.4059,-0.3472980260848999,0.3541485071182251,9.9990234375,0.031022360548377037,-0.03060963563621044,-0.037035148590803146
302.4226,-0.37074869871139526,0.3579743802547455,10.017688751220703,0.03119485080242157,-0.027426229789853096,-0.039614394307136536
302.4392,-0.3583434522151947,0.37132471799850464,10.020073890686035,0.03195791319012642,-0.02651311829686165,-0.04419131949543953
302.4559,-0.34549808502197266,0.39311593770980835,10.013276100158691,0.03426305577158928,-0.025216396898031235,-0.03952687978744507
302.4726,-0.3561461269855499,0.3789803981781006,10.001779556274414,0.03587429225444794,-0.023300720378756523,-0.029388893395662308
302.4892,-0.333711177110672,0.391865998506546,10.014817237854004,0.03772702440619469,-0.023884529247879982,-0.019189178943634033
302.5059,-0.35575181245803833,0.39527609944343567,9.99810791015625,0.03853736072778702,-0.023743802681565285,-0.008973401039838791
302.5226,-0.35361751914024353,0.3844507038593292,10.002490043640137,0.04167884588241577,-0.024697469547390938,-0.005587988067418337
302.5392,-0.35464733839035034,0.3353227972984314,10.002309799194336,0.04197438061237335,-0.02520490251481533,-0.015776988118886948
302.5559,-0.3513370752334595,0.34176814556121826,9.981943130493164,0.042572882026433945,-0.02562481164932251,-0.026071995496749878
302.5726,-0.37250199913978577,0.354093462228775,10.000529289245605,0.04402642324566841,-0.02427985705435276,-0.01898321881890297
302.5892,-0.3691657781600952,0.32142263650894165,10.020471572875977,0.046790387481451035,-0.023270420730113983,-0.008556741289794445
302.6059,-0.42797476053237915,0.27002814412117004,10.010263442993164,0.05276229605078697,-0.020397860556840897,-0.008642293512821198
302.6226,-0.3088531196117401,0.3540627658367157,9.976621627807617,0.06304537504911423,-0.03018530085682869,0.01472968328744173
302.6393,-0.34364792704582214,0.24202096462249756,10.037003517150879,0.07641370594501495,-0.019892677664756775,0.05434437841176987
302.6559,-0.33574485778808594,0.1496201604604721,9.935317993164062,0.0787949338555336,-0.009688541293144226,0.0766591727733612
302.6726,-0.41799840331077576,0.4894789755344391,9.952980995178223,0.07758363336324692,-0.01112001296132803,0.06229643151164055
302.6893,-0.35761064291000366,0.6247232556343079,10.085268020629883,0.07756225019693375,-0.007290745619684458,0.09531059116125107
302.7059,-0.46011224389076233,0.3890446126461029,9.991374015808105,0.07965588569641113,-0.0028115659952163696,0.11858850717544556
302.7226,-0.4723658561706543,0.2759900391101837,9.96314811706543,0.07009132206439972,-0.005607828963547945,0.045093338936567307
302.7393,-0.43494510650634766,0.3953538239002228,10.064631462097168,0.06087730452418327,-0.011067194864153862,-0.029424965381622314
302.7559,-0.4153173267841339,0.5121299624443054,10.11076545715332,0.05273193120956421,-0.01001117005944252,-0.0662238597869873
302.7726,-0.40029844641685486,0.49188101291656494,10.037867546081543,0.045505255460739136,-0.0036709639243781567,-0.08755730837583542
302.7893,-0.367793470621109,0.4975644648075104,9.996866226196289,0.03962178900837898,-0.002576843136921525,-0.12538225948810577
302.8059,-0.320753276348114,0.5093840956687927,10.028934478759766,0.03520168736577034,-0.0046407366171479225,-0.15708723664283752
302.8226,-0.2720523774623871,0.5576542615890503,10.008801460266113,0.03220934420824051,-0.006900053005665541,-0.16333229839801788
302.8393,-0.214324489235878,0.5835641622543335,9.993724822998047,0.02846750058233738,-0.01207559835165739,-0.1532924622297287
302.8559,-0.20172324776649475,0.6066893339157104,10.048635482788086,0.028412647545337677,-0.02105063945055008,-0.12827293574810028
302.8726,-0.23195649683475494,0.5458199381828308,9.990938186645508,0.03165673837065697,-0.027186868712306023,-0.10918311774730682
302.8893,-0.17202146351337433,0.47349685430526733,9.922621726989746,0.023722616955637932,-0.04099789634346962,-0.14881619811058044
302.9059,-0.21826279163360596,0.5166418552398682,9.955459594726562,0.02196321450173855,-0.0522666834294796,-0.15888333320617676
302.9226,-0.19236242771148682,0.543554425239563,10.013091087341309,0.021809428930282593,-0.06238946691155434,-0.14522582292556763
302.9393,-0.20908977091312408,0.4697529673576355,9.983931541442871,0.019987983629107475,-0.06876856088638306,-0.13196617364883423
302.9559,-0.21981844305992126,0.392231285572052,9.9324312210083,0.017702681943774223,-0.08003262430429459,-0.1477898210287094
302.9726,-0.24568505585193634,0.37406396865844727,9.946959495544434,0.017280729487538338,-0.0940510556101799,-0.17126145958900452
302.9893,-0.17758236825466156,0.4275296628475189,10.009536743164062,0.014453176409006119,-0.10625632852315903,-0.1949344426393509
303.0059,-0.16935259103775024,0.4831661283969879,9.92702865600586,0.013873827643692493,-0.11827050149440765,-0.2016480565071106
303.0226,-0.11030466854572296,0.5064727663993835,9.86042308807373,0.012410193681716919,-0.13708540797233582,-0.19743411242961884
303.0393,-0.06339190155267715,0.5349433422088623,9.856331825256348,0.008344822563230991,-0.16468676924705505,-0.19003888964653015
303.0559,-0.03605150431394577,0.5360512137413025,9.825613975524902,0.00544437300413847,-0.2011660784482956,-0.1697012037038803
303.0726,0.00998734962195158,0.45874014496803284,9.837642669677734,0.0010051309363916516,-0.2399137169122696,-0.15618397295475006
303.0893,-0.020862571895122528,0.3899855315685272,9.849533081054688,-0.00396335544064641,-0.2829517722129822,-0.16028408706188202
303.1059,-0.001794362673535943,0.3214585781097412,9.853968620300293,-0.005208264105021954,-0.33041760325431824,-0.1863839328289032
303.1226,-0.028530526906251907,0.3429606854915619,9.7805814743042,-0.009984211064875126,-0.3857894539833069,-0.20381413400173187
303.1393,-0.045216724276542664,0.3372936546802521,9.805794715881348,-0.020253604277968407,-0.44199317693710327,-0.2075236737728119
303.1559,-0.09478479623794556,0.36697980761528015,9.86313247680664,-0.023168543353676796,-0.49219149351119995,-0.19924314320087433
303.1726,-0.2685215473175049,0.4086858630180359,9.897274017333984,-0.02190559171140194,-0.5383877158164978,-0.15911981463432312
303.1893,-0.4475889205932617,0.33874067664146423,9.872235298156738,-0.021011516451835632,-0.5796021819114685,-0.10510387271642685
303.2059,-0.4408123195171356,0.04258698597550392,9.924298286437988,-0.01117710117250681,-0.6154879331588745,-0.08726043254137039
303.2226,-0.5111902952194214,-0.3278999924659729,9.946170806884766,0.0060548363253474236,-0.6455725431442261,-0.0989328995347023
303.2393,-0.6988730430603027,0.18146377801895142,9.954299926757812,-0.0020066306460648775,-0.6858895421028137,-0.12373881042003632
303.2559,-0.765947163105011,0.7957677245140076,10.158886909484863,-0.017038460820913315,-0.7243566513061523,0.011978373862802982
303.2726,-0.8771116137504578,1.0552057027816772,10.392389297485352,-0.03599803149700165,-0.7627031207084656,0.29170480370521545
303.2893,-0.837725818157196,0.6111997961997986,10.592413902282715,-0.06196753680706024,-0.7907668948173523,0.48600074648857117
303.3059,-0.7505713701248169,-0.2028733491897583,10.612456321716309,-0.07822447270154953,-0.8479373455047607,0.4536359906196594
303.3226,-0.7260197401046753,-0.8898271322250366,10.75049114227295,-0.044244542717933655,-0.9231860637664795,0.2093818485736847
303.3393,-0.7960860133171082,-1.246622920036316,10.946640014648438,0.00036859975080005825,-0.9829177260398865,-0.08319118618965149
303.3559,-0.8959311842918396,-1.2215443849563599,11.214794158935547,0.06216711550951004,-1.058222770690918,-0.35064858198165894
303.3726,-1.3793983459472656,-1.1840736865997314,11.522520065307617,0.14826972782611847,-1.0908217430114746,-0.4622099995613098
303.3893,-1.9658254384994507,-0.7589929699897766,11.497879981994629,0.2128070741891861,-1.0795600414276123,-0.586287796497345
303.4059,-2.214933156967163,-0.18314291536808014,11.060372352600098,0.2960950434207916,-1.0408340692520142,-0.5338907837867737
303.4226,-3.074550151824951,-0.06462087482213974,10.37091064453125,0.29490238428115845,-1.019522786140442,-0.5087579488754272
303.4393,-3.3040049076080322,0.5031363368034363,9.971179962158203,0.27504992485046387,-0.9598912000656128,-0.5024860501289368
303.4559,-3.5070598125457764,0.5665146708488464,9.314835548400879,0.3187512457370758,-0.8572958111763,-0.40159881114959717
303.4726,-2.716205358505249,-0.2708263695240021,9.21506118774414,0.35443785786628723,-0.6235314011573792,-0.5015006065368652
303.4893,-1.790047287940979,-1.8078058958053589,9.259456634521484,0.3930990695953369,-0.2890300750732422,-0.8192172646522522
303.5059,-2.074909210205078,-1.9384770393371582,8.878839492797852,0.3362080752849579,0.15493737161159515,-1.3427777290344238
303.5226,-1.8141264915466309,-1.0603138208389282,8.856996536254883,0.21685537695884705,0.5702948570251465,-1.7040965557098389
303.5393,-1.9024540185928345,-0.18257631361484528,9.598138809204102,0.14077019691467285,0.9682245254516602,-1.7119042873382568
303.5559,-2.0449018478393555,0.7435840368270874,9.960684776306152,0.08093349635601044,1.3289639949798584,-1.4215954542160034
303.5726,-2.142052412033081,1.1016719341278076,9.58826732635498,0.04718979075551033,1.6510908603668213,-0.9480072855949402
303.5893,-2.069218635559082,0.7514840960502625,9.71914291381836,0.0003611707652453333,1.9051700830459595,-0.4797426164150238
303.6059,-2.0155858993530273,0.45699697732925415,10.072044372558594,-0.06634654104709625,2.099252939224243,-0.161897212266922
303.6226,-1.7526164054870605,0.3530553877353668,10.210996627807617,-0.11166904121637344,2.198888063430786,0.10836432874202728
303.6393,-1.5642489194869995,0.2510032057762146,10.0531587600708,-0.17780514061450958,2.207082748413086,0.33844903111457825
303.6559,-1.4147106409072876,0.0972575768828392,9.897382736206055,-0.27046534419059753,2.163013458251953,0.5297871828079224
303.6726,-1.1167521476745605,-0.27203330397605896,10.157642364501953,-0.36407139897346497,2.0878944396972656,0.6065436005592346
303.6893,-1.0899672508239746,-0.4363313913345337,10.12373161315918,-0.40210023522377014,1.9911926984786987,0.5838517546653748
303.7059,-1.0873641967773438,-0.23840735852718353,10.059324264526367,-0.37796831130981445,1.8804563283920288,0.5716040134429932
303.7226,-0.7940004467964172,0.06104983761906624,10.002096176147461,-0.3570437729358673,1.7488222122192383,0.5899585485458374
303.7393,-1.0008572340011597,0.15449418127536774,9.953027725219727,-0.3398323655128479,1.6175764799118042,0.71530681848526
303.7559,-0.6548267006874084,0.01610312983393669,9.950477600097656,-0.34956786036491394,1.510146975517273,0.7356227040290833
303.7726,-0.4249733090400696,-0.21581122279167175,9.987127304077148,-0.366423636674881,1.3630977869033813,0.7079416513442993
303.7893,-0.5155168175697327,-0.33082315325737,9.686732292175293,-0.3385104238986969,1.2148408889770508,0.6803588271141052
303.8059,-0.3612109124660492,-0.4791002571582794,9.251253128051758,-0.2716748118400574,1.0312784910202026,0.6257169842720032
303.8226,0.008803126402199268,-0.5263093709945679,9.04428768157959,-0.19762681424617767,0.8569866418838501,0.5017625093460083
303.8393,0.053499847650527954,-0.38365837931632996,8.725661277770996,-0.13002194464206696,0.6615816950798035,0.4078832268714905
303.8559,0.051434364169836044,-0.07836456596851349,8.583649635314941,-0.08162293583154678,0.4382237493991852,0.3333759009838104
303.8726,0.17996694147586823,0.24743926525115967,8.882786750793457,-0.0532885305583477,0.21982377767562866,0.31939175724983215
303.8893,0.21039670705795288,0.3844919204711914,9.137687683105469,-0.054355036467313766,0.010106966830790043,0.37313923239707947
303.9059,-0.037748776376247406,0.6574584245681763,9.109725952148438,-0.03163536638021469,-0.21961809694766998,0.4502994418144226
303.9226,-0.4401443600654602,0.8470683693885803,8.91728401184082,0.03388221934437752,-0.45110830664634705,0.6032421588897705
303.9393,-0.16922734677791595,0.77734375,8.990009307861328,0.09867969155311584,-0.6610808372497559,0.7496486306190491
303.9559,0.8044728636741638,0.10833538323640823,9.735993385314941,0.18193469941616058,-0.711554765701294,0.7844190001487732
303.9726,2.17525315284729,-0.8059796094894409,10.01938533782959,0.25263646245002747,-0.5819892287254333,0.5931934714317322
303.9893,3.846496820449829,-2.2774760723114014,11.30152416229248,0.26096248626708984,-0.2518877685070038,0.32251590490341187
304.0059,2.602076768875122,-2.0103683471679688,10.851702690124512,0.2828426659107208,-0.12091931700706482,0.17503052949905396
304.0226,2.333848476409912,-0.9602929353713989,10.017861366271973,0.26225733757019043,-0.26428988575935364,-0.03782138228416443
304.0393,2.417431354522705,-0.8539832830429077,10.771410942077637,0.26657193899154663,-0.38308185338974,0.17945992946624756
304.0559,1.3515286445617676,-1.550458550453186,10.6133451461792,0.35807329416275024,-0.4879208505153656,0.50114506483078
304.0726,1.5002204179763794,-2.300698757171631,10.182844161987305,0.39200785756111145,-0.5975623726844788,0.4837252199649811
304.0893,1.1454722881317139,-1.397221326828003,9.594015121459961,0.3936487138271332,-0.6739551424980164,0.19939616322517395
304.1059,0.00837970245629549,-0.5309582948684692,9.450738906860352,0.4068230092525482,-0.7561244964599609,0.11330962926149368
304.1226,-0.19735658168792725,-0.6246888041496277,10.029719352722168,0.398652046918869,-0.7748802900314331,0.010747740976512432
304.1393,-0.5558488965034485,0.3863140046596527,10.345656394958496,0.3904572129249573,-0.7483685612678528,-0.2435135543346405
304.1559,-0.7775903940200806,0.4838877320289612,10.250812530517578,0.4204179346561432,-0.7047321796417236,-0.24909541010856628
304.1726,-0.7273703813552856,0.009580886922776699,10.10251522064209,0.4296973943710327,-0.662420928478241,-0.19092915952205658
304.1893,-0.48545047640800476,-0.28595659136772156,10.189126014709473,0.43232807517051697,-0.630184531211853,-0.1477733999490738
304.2059,-0.2602834701538086,-0.39028578996658325,10.354872703552246,0.43419933319091797,-0.5736615061759949,-0.05640928074717522
304.2226,-0.4403778612613678,-0.07425897568464279,9.999238967895508,0.44926783442497253,-0.5260109305381775,-0.01330790389329195
304.2393,-0.2809249460697174,0.2586100697517395,9.950682640075684,0.4502502977848053,-0.5189692378044128,0.033382296562194824
304.2559,-0.18079030513763428,0.06910272687673569,10.169819831848145,0.4686186611652374,-0.49585601687431335,0.15269555151462555
304.2726,-0.40472060441970825,0.08594141900539398,9.93857192993164,0.48451972007751465,-0.4740721583366394,0.19714264571666718
304.2893,-0.5254815220832825,-0.03842652589082718,9.82929801940918,0.46930795907974243,-0.47460150718688965,0.11268297582864761
304.306,-0.5217848420143127,-0.0014990281779319048,10.182604789733887,0.4366975724697113,-0.46459659934043884,-0.10494644939899445
304.3226,-0.961467444896698,0.38157832622528076,10.179102897644043,0.4458548426628113,-0.4384686350822449,-0.15332500636577606
304.3393,-0.6660678386688232,0.1483728438615799,9.96020221710205,0.45488297939300537,-0.4150037467479706,-0.13233475387096405
304.356,-0.5772658586502075,0.49514198303222656,10.163138389587402,0.4115745723247528,-0.4164624810218811,-0.17309939861297607
304.3726,-0.9044665098190308,1.2479727268218994,10.02220630645752,0.39792564511299133,-0.40520045161247253,-0.1033860296010971
304.3893,-0.7231242656707764,1.0824817419052124,9.73794937133789,0.4010939300060272,-0.41285383701324463,0.01927226036787033
304.406,-0.7229699492454529,0.8280141949653625,9.685364723205566,0.3752560019493103,-0.4372136890888214,0.04555528983473778
304.4226,-1.0749821662902832,0.9852043390274048,9.877335548400879,0.34742483496665955,-0.4369420111179352,0.05149225518107414
304.4393,-1.0616222620010376,1.2204495668411255,9.988112449645996,0.33414360880851746,-0.42762553691864014,0.07372608035802841
304.456,-1.272563099861145,1.0092458724975586,10.001023292541504,0.3135332763195038,-0.3890189230442047,0.1147884875535965
304.4726,-1.5443742275238037,1.0022715330123901,10.021501541137695,0.27558428049087524,-0.37132692337036133,0.1236346960067749
304.4893,-1.6475846767425537,1.0335725545883179,10.067903518676758,0.27674946188926697,-0.35044100880622864,0.09752780199050903
304.506,-1.657960295677185,0.5094937682151794,10.071606636047363,0.2716902792453766,-0.31935617327690125,-0.039428528398275375
304.5226,-1.6954234838485718,0.6036215424537659,10.248628616333008,0.23713266849517822,-0.2931617200374603,-0.20572422444820404
304.5393,-1.7273272275924683,0.6562803387641907,10.114195823669434,0.23003023862838745,-0.26180893182754517,-0.3251146078109741
304.556,-1.5616949796676636,0.914967954158783,10.033747673034668,0.215627983212471,-0.23531308770179749,-0.4020073711872101
304.5726,-1.4631621837615967,1.1881033182144165,9.945748329162598,0.20379790663719177,-0.2164808064699173,-0.4204552471637726
304.5893,-1.4730068445205688,1.4543286561965942,9.831865310668945,0.2035234421491623,-0.20209993422031403,-0.37708497047424316
304.606,-1.5835704803466797,1.551011085510254,9.74045467376709,0.1877455860376358,-0.1909123659133911,-0.29168814420700073
304.6226,-1.4704536199569702,1.4596402645111084,9.830394744873047,0.1839294135570526,-0.17966008186340332,-0.2203693389892578
304.6393,-1.4825284481048584,1.3495229482650757,9.795613288879395,0.19164977967739105,-0.1744777262210846,-0.1715218424797058
304.656,-1.5451782941818237,1.352018117904663,9.817667961120605,0.18716879189014435,-0.17755745351314545,-0.12012498825788498
304.6726,-1.4805846214294434,1.2093734741210938,9.83288860321045,0.1862211376428604,-0.17726626992225647,-0.08561377972364426
304.6893,-1.4150171279907227,1.1488022804260254,9.853480339050293,0.18083253502845764,-0.18224281072616577,-0.09042958170175552
304.706,-1.410141944885254,0.9775951504707336,9.785414695739746,0.17869532108306885,-0.19026882946491241,-0.12288647145032883
304.7226,-1.4949911832809448,0.8911576867103577,9.838417053222656,0.17241765558719635,-0.2039019614458084,-0.17544695734977722
304.7393,-1.545783281326294,0.9726079702377319,9.900626182556152,0.17423519492149353,-0.21687497198581696,-0.2330108880996704
304.756,-1.5917518138885498,0.8517422676086426,9.894902229309082,0.1710006445646286,-0.22788572311401367,-0.31951504945755005
304.7726,-1.7408117055892944,0.8883845806121826,9.995635032653809,0.15872110426425934,-0.23400332033634186,-0.4252961575984955
304.7893,-1.8436959981918335,1.105320692062378,9.98061752319336,0.1535017490386963,-0.22647054493427277,-0.4881078898906708
304.806,-1.7553504705429077,1.1360994577407837,9.86780071258545,0.15029704570770264,-0.2317383885383606,-0.5381621718406677
304.8226,-1.776498556137085,1.2758570909500122,9.864888191223145,0.14033636450767517,-0.2366851270198822,-0.5529400706291199
304.8393,-1.7823529243469238,1.4177008867263794,9.92956256866455,0.1462855488061905,-0.2408319115638733,-0.4987601041793823
304.856,-1.6455049514770508,1.2106609344482422,9.752135276794434,0.15248297154903412,-0.25964677333831787,-0.4617064297199249
304.8726,-1.6073124408721924,1.1991279125213623,9.708573341369629,0.14781077206134796,-0.2951720356941223,-0.4699516296386719
304.8893,-1.7572990655899048,1.227522850036621,9.79712200164795,0.15500639379024506,-0.321738064289093,-0.45899954438209534
304.906,-1.7222239971160889,1.2377002239227295,9.787293434143066,0.1589636653661728,-0.35122036933898926,-0.46355825662612915
304.9226,-1.8132567405700684,1.1059950590133667,9.788207054138184,0.16065552830696106,-0.3776082694530487,-0.4635944068431854
304.9393,-1.808708906173706,1.0581517219543457,9.726149559020996,0.16662786900997162,-0.41239529848098755,-0.4861002266407013
304.956,-1.8713496923446655,1.1577281951904297,9.716493606567383,0.17277680337429047,-0.4476141035556793,-0.4983305037021637
304.9726,-2.0445384979248047,1.2431517839431763,9.755664825439453,0.1732519119977951,-0.4738071858882904,-0.49861642718315125
304.9893,-2.1396892070770264,1.2316029071807861,9.730001449584961,0.17555373907089233,-0.4972837269306183,-0.49457746744155884
305.006,-2.1123905181884766,1.111975073814392,9.826136589050293,0.18018272519111633,-0.5176324248313904,-0.5179838538169861
305.0226,-2.3818907737731934,1.3539384603500366,9.827879905700684,0.18625299632549286,-0.5344210267066956,-0.5329338908195496
305.0393,-2.6346755027770996,1.4399449825286865,9.804707527160645,0.19622087478637695,-0.5406769514083862,-0.5053059458732605
305.056,-2.6650006771087646,1.534645438194275,9.749330520629883,0.20907458662986755,-0.5267519354820251,-0.4748312532901764
305.0726,-2.711965799331665,1.8221203088760376,9.668195724487305,0.21748675405979156,-0.5132111310958862,-0.4116700291633606
305.0893,-2.753422260284424,1.7243176698684692,9.557313919067383,0.2290525883436203,-0.5239534378051758,-0.3246559202671051
305.106,-2.7674310207366943,1.1732252836227417,9.545425415039062,0.23258964717388153,-0.5482840538024902,-0.3343774974346161
305.1226,-2.6108615398406982,0.8600403070449829,9.776751518249512,0.2292972207069397,-0.5758554935455322,-0.4246808886528015
305.1393,-2.4815306663513184,1.0350733995437622,9.838191032409668,0.23132012784481049,-0.614116370677948,-0.5330912470817566
305.156,-2.314192533493042,1.3278390169143677,9.940836906433105,0.22042468190193176,-0.6828627586364746,-0.5542017221450806
305.1726,-1.8693727254867554,1.5154297351837158,10.222223281860352,0.19908380508422852,-0.7740558385848999,-0.5423301458358765
305.1893,-1.403509497642517,1.739129900932312,10.56647777557373,0.17871823906898499,-0.9064049124717712,-0.501321017742157
305.206,-1.077529788017273,1.6121306419372559,10.98473072052002,0.18020924925804138,-1.0525410175323486,-0.32984039187431335
305.2226,-0.8133751749992371,1.1889833211898804,10.931437492370605,0.18712307512760162,-1.2222687005996704,-0.13215114176273346
305.2393,-0.6857324242591858,0.2572917640209198,10.823692321777344,0.20123571157455444,-1.4080883264541626,0.04806629940867424
305.256,-0.6122210025787354,-0.7242140769958496,10.707396507263184,0.21369104087352753,-1.6110121011734009,0.10086140781641006
305.2726,-0.47198665142059326,-2.009174108505249,11.178606986999512,0.2172589898109436,-1.7977372407913208,0.0003798808320425451
305.2893,-0.728603184223175,-3.468212366104126,11.797348976135254,0.2349468320608139,-1.9112915992736816,-0.27309897541999817
305.306,-1.4418057203292847,-4.360435485839844,11.825493812561035,0.25194111466407776,-1.9431124925613403,-0.6780719757080078
305.3226,-2.499884843826294,-4.4244914054870605,11.03577709197998,0.25179043412208557,-1.9234098196029663,-1.187944769859314
305.3393,-3.5929782390594482,-3.0938096046447754,10.311222076416016,0.19681423902511597,-1.9524539709091187,-1.698957920074463
305.356,-4.245183944702148,-1.2595235109329224,10.327386856079102,0.14715828001499176,-2.0777125358581543,-1.9078056812286377
305.3726,-5.737839698791504,0.04624465852975845,10.742076873779297,0.13414327800273895,-2.1061599254608154,-1.7357778549194336
305.3893,-6.570498943328857,1.3912924528121948,11.352723121643066,0.1699187308549881,-2.133863925933838,-1.4107600450515747
305.406,-6.619716167449951,2.1334903240203857,11.653874397277832,0.17979681491851807,-2.053781032562256,-0.9113874435424805
305.4226,-7.279873847961426,2.04213809967041,10.990811347961426,0.12115060538053513,-1.7593683004379272,-0.48857787251472473
305.4393,-7.498177528381348,2.806307792663574,10.253314971923828,0.1310919225215912,-1.3022515773773193,-0.43705618381500244
305.456,-4.342922210693359,0.5952600836753845,8.772880554199219,0.44140690565109253,-0.7520981431007385,-0.29741334915161133
305.4726,-2.0346438884735107,-2.8540849685668945,8.703872680664062,0.7482248544692993,-0.1342105269432068,-0.5411984324455261
305.4893,-2.7197751998901367,-3.381777286529541,7.945442199707031,0.5480732321739197,0.5644674897193909,-1.2190592288970947
305.506,-3.891519546508789,-2.477663278579712,6.901211738586426,0.14547699689865112,1.295063853263855,-1.965466022491455
305.5226,-4.564108371734619,-2.7238333225250244,6.950474262237549,-0.23155853152275085,1.9894472360610962,-2.468538522720337
305.5393,-4.659301280975342,-2.584296703338623,7.503675937652588,-0.6653066873550415,2.5807864665985107,-2.9239912033081055
305.556,-5.338643550872803,-0.7328858375549316,8.258519172668457,-0.7589682340621948,3.1449413299560547,-2.8768012523651123
305.5726,-5.837673187255859,0.26577576994895935,8.054141998291016,-0.5185331106185913,3.6379568576812744,-2.203038454055786
305.5893,-5.631932735443115,-0.1482561081647873,8.092704772949219,-0.3249729573726654,4.080203533172607,-1.4536622762680054
305.606,-5.657618045806885,-0.12926971912384033,8.374665260314941,-0.21113665401935577,4.418954849243164,-0.7555133700370789
305.6226,-5.651109218597412,-0.7033011317253113,9.09901237487793,-0.18088842928409576,4.702943325042725,-0.13019008934497833
305.6393,-4.734313011169434,-1.9539140462875366,9.505422592163086,-0.211534783244133,4.882086753845215,0.07645062357187271
305.656,-4.820528984069824,-2.499997615814209,9.995415687561035,-0.2278030812740326,4.943655490875244,-0.023746395483613014
305.6726,-5.256448745727539,-1.241956353187561,10.49080753326416,-0.22981540858745575,5.019179821014404,-0.05657479166984558
305.6893,-4.90170431137085,0.08722218871116638,11.088578224182129,-0.27571454644203186,4.965565204620361,0.06547103077173233
305.706,-4.93011474609375,1.2935614585876465,11.275049209594727,-0.3363617956638336,4.766070365905762,0.42979636788368225
305.7226,-5.118738651275635,2.2650392055511475,11.008685111999512,-0.33910396695137024,4.480879783630371,1.1109356880187988
305.7393,-4.801934719085693,1.798866629600525,10.956351280212402,-0.3101010322570801,4.110093593597412,1.9043998718261719
305.756,-4.074809551239014,0.8020206689834595,10.227712631225586,-0.3176595866680145,3.571007490158081,2.2079720497131348
305.7726,-4.330702781677246,-0.31639134883880615,9.50932502746582,-0.1512637436389923,2.849299430847168,2.1501646041870117
305.7893,-2.9252076148986816,-0.7706893086433411,6.698995590209961,0.13760334253311157,1.898488163948059,1.5131988525390625
305.806,-1.8236513137817383,0.09759978204965591,4.708402156829834,0.41478174924850464,0.6489517092704773,0.7725460529327393
305.8226,-1.94134521484375,1.826160192489624,5.344902992248535,0.3841478228569031,-0.44868290424346924,0.05379835516214371
305.8393,-2.714723587036133,2.623471260070801,7.451541423797607,0.3945011794567108,-1.1894534826278687,-0.01171442586928606
305.856,-3.254216194152832,2.378277540206909,8.16946029663086,0.4837864339351654,-1.6272112131118774,0.3530232012271881
305.8726,1.4289014339447021,0.6673941612243652,10.291545867919922,0.534003734588623,-1.4606860876083374,0.626014232635498
305.8893,5.791733264923096,-3.0348880290985107,13.737120628356934,0.4998590648174286,-0.9017143845558167,1.4319120645523071
305.906,-0.6357042193412781,-2.6540215015411377,17.70046043395996,0.3698105812072754,-1.0546646118164062,2.8354973793029785
305.9226,-2.6240224838256836,-3.084920883178711,14.454231262207031,0.5030902028083801,-1.386808156967163,2.7555766105651855
305.9393,-3.221742868423462,-5.406551361083984,9.732428550720215,0.9752910137176514,-1.4509817361831665,2.5335378646850586
305.956,-3.007406711578369,-5.389613628387451,6.776866436004639,1.3193775415420532,-1.4629340171813965,1.5222883224487305
305.9727,-3.3333773612976074,-2.768157720565796,8.506892204284668,1.1993993520736694,-1.5506223440170288,-0.13667188584804535
305.9893,-3.0420801639556885,0.5988386869430542,11.617650985717773,0.8912003040313721,-1.3510549068450928,-0.5009199380874634
306.006,-2.137028217315674,0.916973888874054,11.307045936584473,0.6965330839157104,-1.0731569528579712,-0.5124810338020325
306.0227,-1.7607365846633911,0.42743048071861267,10.41611385345459,0.6292588710784912,-0.928339958190918,-0.7819204926490784
306.0393,-1.0526123046875,0.3521001636981964,10.48594856262207,0.545341968536377,-0.8717204928398132,-1.1245837211608887
306.056,-1.036996841430664,2.424919605255127,10.449150085449219,0.5664212107658386,-0.8127449750900269,-0.677729070186615
306.0727,-0.7819286584854126,3.440294027328491,9.74038028717041,0.6810458302497864,-0.7560062408447266,0.548326849937439
306.0893,-0.7984474897384644,1.4937595129013062,8.999611854553223,0.7301016449928284,-0.7550182938575745,1.6190931797027588
306.106,-0.7166909575462341,-0.6576390862464905,9.194025993347168,0.6380457282066345,-0.8010931611061096,1.7431364059448242
306.1227,-0.724351704120636,-1.3922538757324219,9.747708320617676,0.5336145758628845,-0.8404223918914795,1.22691810131073
306.1393,-1.3703696727752686,-1.152023196220398,10.450525283813477,0.4607529044151306,-0.8532484769821167,0.6222481727600098
306.156,-2.188974142074585,-0.2508895695209503,10.610506057739258,0.4297029972076416,-0.847110390663147,0.25394555926322937
306.1727,-2.550295352935791,-0.2764509320259094,10.594342231750488,0.4052819311618805,-0.80108642578125,0.16913826763629913
306.1893,-2.544473648071289,-1.1169096231460571,10.531598091125488,0.38200244307518005,-0.7246813774108887,-0.09869486838579178
306.206,-2.778459310531616,-0.614216685295105,10.340882301330566,0.34679290652275085,-0.6418613195419312,-0.3962878882884979
306.2227,-3.055535078048706,-0.7384135723114014,10.120183944702148,0.3315140902996063,-0.5565347075462341,-0.405732125043869
306.2393,-2.6339111328125,-0.7540506720542908,9.807819366455078,0.29074522852897644,-0.5050684809684753,-0.5191453695297241
306.256,-2.4947967529296875,0.07203509658575058,9.955759048461914,0.27787187695503235,-0.4618948996067047,-0.5541346073150635
306.2727,-2.3900809288024902,0.7059974670410156,9.948240280151367,0.28709396719932556,-0.42389899492263794,-0.4516353905200958
306.2893,-2.2639245986938477,1.037981629371643,9.876874923706055,0.27355334162712097,-0.4040066599845886,-0.3433440029621124
306.306,-2.270127534866333,1.101462721824646,9.827308654785156,0.24694053828716278,-0.39191746711730957,-0.18815049529075623
306.3227,-2.1804862022399902,0.9791896939277649,9.874627113342285,0.2428131103515625,-0.3853744864463806,-0.002010745694860816
306.3393,-2.0655524730682373,0.8548511266708374,9.861763000488281,0.24050366878509521,-0.37784892320632935,0.160923033952713
306.356,-2.2569432258605957,0.7249348163604736,9.874879837036133,0.22983580827713013,-0.3854053020477295,0.18931828439235687
306.3727,-2.131549119949341,0.2872025966644287,9.795276641845703,0.2116939127445221,-0.40580180287361145,0.15462763607501984
306.3893,-2.226132869720459,0.09534461796283722,9.909760475158691,0.19370712339878082,-0.4242589771747589,0.04217367619276047
306.406,-2.298949718475342,-0.09590024501085281,10.058923721313477,0.189145028591156,-0.4395129382610321,-0.08389177918434143
306.4227,-2.2098395824432373,-0.09470764547586441,10.200769424438477,0.17760813236236572,-0.4599725008010864,-0.22561900317668915
306.4393,-1.7769322395324707,-0.13938193023204803,10.289331436157227,0.17667585611343384,-0.4956165552139282,-0.32213094830513
306.456,-1.4267406463623047,0.004586075432598591,10.200305938720703,0.18014560639858246,-0.5531198382377625,-0.39792704582214355
306.4727,-0.6578881144523621,0.19246485829353333,10.014653205871582,0.162034273147583,-0.6749624609947205,-0.41918349266052246
306.4893,-0.32711946964263916,0.7213461399078369,9.666878700256348,0.12355578690767288,-0.8375611305236816,-0.35834813117980957
306.506,-0.6170796751976013,1.6330524682998657,9.478775978088379,0.1022665873169899,-1.0172852277755737,-0.14799359440803528
306.5227,-0.9218358397483826,1.6433305740356445,10.095684051513672,0.07169943302869797,-1.1848472356796265,0.0994393602013588
306.5393,-0.9338327646255493,1.1478883028030396,10.7697114944458,0.03488938882946968,-1.3444336652755737,0.22592194378376007
306.556,-0.9074468612670898,0.8325712084770203,10.983213424682617,0.00569647504016757,-1.5034188032150269,0.2323673814535141
306.5727,-1.0144779682159424,0.5538758635520935,10.789811134338379,0.0016792744863778353,-1.6703777313232422,0.23656222224235535
306.5893,-1.1187301874160767,0.4558834433555603,10.881671905517578,-0.005477025639265776,-1.832800269126892,0.20314764976501465
306.606,-0.9013963341712952,0.2996204197406769,11.619543075561523,-0.020437221974134445,-2.001889944076538,0.19180504977703094
306.6227,-0.4917827546596527,0.02522638440132141,12.236248016357422,-0.024942727759480476,-2.168646812438965,0.22954609990119934
306.6393,-0.3966734707355499,-0.5784289240837097,12.220270156860352,-0.011341115459799767,-2.327996253967285,0.2700716555118561
306.656,-0.3768779933452606,-1.3648508787155151,12.419711112976074,0.002417206298559904,-2.4484121799468994,0.27761974930763245
306.6727,-0.5360972881317139,-2.4127957820892334,12.428817749023438,0.0765715092420578,-2.481867551803589,0.24350742995738983
306.6893,-0.5249425172805786,-3.1304757595062256,11.915031433105469,0.11396441608667374,-2.486290216445923,-0.14874449372291565
306.706,-1.7523504495620728,-2.2447597980499268,10.716894149780273,0.001110880053602159,-2.576951265335083,-0.8730348944664001
306.7227,-2.7113587856292725,-0.2549836039543152,10.791841506958008,-0.20341697335243225,-2.7746593952178955,-1.5633901357650757
306.7393,-4.028848171234131,1.3165653944015503,12.449191093444824,-0.26126986742019653,-2.7288239002227783,-1.8154867887496948
306.756,-4.8149333000183105,1.7682840824127197,13.479310989379883,-0.11893696337938309,-2.4461705684661865,-1.670307993888855
306.7727,-5.994261264801025,0.27258944511413574,11.802521705627441,0.12475889921188354,-2.068723201751709,-1.3563133478164673
306.7893,-8.414731979370117,-0.019091418012976646,9.804817199707031,0.09220589697360992,-1.7863452434539795,-1.1002274751663208
306.806,-8.7855224609375,1.2570081949234009,8.587430953979492,-0.0961982011795044,-1.6543769836425781,-0.9853358268737793
306.8227,-5.820084095001221,0.7580276131629944,7.87021541595459,-0.19111792743206024,-0.9751392006874084,-1.21150803565979
306.8393,-3.507312297821045,-0.6837286949157715,7.4380879402160645,-0.05064438283443451,-0.24925807118415833,-1.2617601156234741
306.856,-5.358086109161377,-0.28459861874580383,6.3211283683776855,0.07570403069257736,0.38484987616539,-0.9882529973983765
306.8727,-5.941694259643555,0.5510463118553162,6.147145748138428,0.18720251321792603,1.0898557901382446,-0.5478727221488953
306.8893,-4.936095714569092,0.4064357876777649,5.650707721710205,0.2559199929237366,1.76785147190094,-0.1493796408176422
306.906,-5.2723612785339355,-0.5991183519363403,5.733644008636475,0.2679428160190582,2.3960189819335938,0.39035335183143616
306.9227,-5.212070465087891,-0.9537667036056519,6.562778949737549,0.19598814845085144,2.9557085037231445,0.5121313333511353
306.9393,-5.314347267150879,-1.4728678464889526,6.9930524826049805,0.1499982625246048,3.487739324569702,0.6314123272895813
306.956,-5.371382236480713,-2.3603975772857666,7.337261199951172,0.05016797035932541,3.956791877746582,0.5205928683280945
306.9727,-6.1156439781188965,-2.019347906112671,7.538756847381592,-0.03105180338025093,4.351985454559326,0.28058749437332153
306.9893,-6.1063690185546875,-0.830366849899292,8.036199569702148,-0.0883944109082222,4.651061534881592,0.12494227290153503
307.006,-5.88040018081665,-0.8479847311973572,8.507935523986816,-0.08502903580665588,4.890578269958496,0.323871374130249
307.0227,-6.047304153442383,-1.0568870306015015,8.917600631713867,-0.06229737028479576,5.028802394866943,0.38051703572273254
307.0393,-6.075982570648193,-0.762302815914154,9.96728229522705,-0.0026463347021490335,5.134701728820801,0.4897628128528595
307.056,-5.909399032592773,-0.1398598700761795,11.068499565124512,-0.0269971564412117,5.243429183959961,0.7070037126541138
307.0727,-5.784120082855225,-0.5142582058906555,11.778436660766602,-0.09030907601118088,5.3081278800964355,0.8808504343032837
307.0893,-5.154462814331055,-0.9814441800117493,11.85207462310791,-0.16140420734882355,5.287214279174805,0.6357415914535522
307.106,-4.657878398895264,-0.09007497131824493,11.868860244750977,-0.17599649727344513,5.170560359954834,0.3870246410369873
307.1227,-4.315521717071533,1.0930771827697754,12.157807350158691,-0.17992091178894043,4.904180526733398,0.3852561116218567
307.1393,-3.741934299468994,1.1185588836669922,11.69744873046875,-0.07115907967090607,4.44844913482666,0.4676344394683838
307.156,-4.328354835510254,-0.0022341671865433455,11.233720779418945,0.17326928675174713,3.8519744873046875,0.587188720703125
307.1727,-3.9681034088134766,-1.0218132734298706,9.034106254577637,0.43470245599746704,3.172619104385376,0.12028945982456207
307.1893,-2.2190401554107666,-0.4814181327819824,6.2396368980407715,0.7010982632637024,2.082554340362549,-0.3641458749771118
307.206,-1.9453682899475098,1.0881155729293823,5.0467681884765625,0.6705042719841003,0.8805297017097473,-1.0340460538864136
307.2227,-2.4887256622314453,2.741241216659546,5.46159029006958,0.4023343622684479,-0.2450105994939804,-1.0239429473876953
307.2393,-3.2462806701660156,3.178144931793213,6.254355430603027,0.3375539779663086,-1.1775527000427246,-0.47286033630371094
307.256,-3.3227977752685547,3.449453115463257,7.216340065002441,0.35383567214012146,-1.8862107992172241,0.20896051824092865
307.2727,1.618122935295105,0.9536375403404236,10.839682579040527,0.2762734591960907,-1.9691946506500244,0.6549534201622009
307.2893,5.9983391761779785,-1.8208253383636475,14.44778823852539,0.22216688096523285,-1.2842727899551392,1.3767672777175903
307.306,4.666364669799805,-0.5526667237281799,14.490721702575684,0.3004322350025177,-0.9876951575279236,2.6495258808135986
307.3227,-1.1245121955871582,-0.730782151222229,14.735062599182129,0.36865371465682983,-1.5477383136749268,3.894280433654785
307.3393,-1.8899471759796143,-4.197213172912598,11.734112739562988,0.5375162363052368,-1.8853801488876343,4.020229339599609
307.356,-2.0062365531921387,-4.3617706298828125,8.974081039428711,0.8006861209869385,-1.9548858404159546,3.297562599182129
307.3727,-3.8011584281921387,0.4563482999801636,7.866855621337891,0.9301432371139526,-2.133183717727661,1.969010829925537
307.3893,-3.9748430252075195,2.4629852771759033,10.07324504852295,1.067160725593567,-2.065950393676758,1.5922582149505615
307.406,-2.1794846057891846,-0.3710309565067291,11.599627494812012,1.0346802473068237,-1.7499401569366455,1.3944188356399536
307.4227,-1.7466366291046143,-3.964517116546631,10.04489517211914,0.7637624740600586,-1.4012370109558105,-0.0926772952079773
307.4393,-2.446078062057495,-2.7884130477905273,9.828521728515625,0.4141528606414795,-1.2499831914901733,-1.9230037927627563
307.456,-2.9089789390563965,1.8197801113128662,10.693718910217285,0.3360443413257599,-1.1534925699234009,-2.202476978302002
307.4727,-2.9009554386138916,5.804417610168457,11.598287582397461,0.5086821913719177,-1.013439416885376,-0.7053834199905396
307.4893,-2.3534247875213623,3.947375774383545,11.052103996276855,0.6760450601577759,-0.8557036519050598,1.3586516380310059
307.506,-1.8409907817840576,-0.1437506377696991,10.164108276367188,0.6913328170776367,-0.7824056148529053,1.9798662662506104
307.5227,-0.8874889016151428,-3.166107177734375,9.909405708312988,0.5645676255226135,-0.7407025694847107,0.9106730818748474
307.5393,-1.396135926246643,-1.3200706243515015,10.25724983215332,0.41090309619903564,-0.680185079574585,-0.33734413981437683
307.556,-1.937391757965088,0.4501170814037323,9.971190452575684,0.33049044013023376,-0.6150708794593811,-0.7300764322280884
307.5727,-1.5965994596481323,0.4909878969192505,10.617807388305664,0.3712513744831085,-0.5938476920127869,-0.6877120137214661
307.5893,-1.4559533596038818,0.446502685546875,10.182018280029297,0.3786354660987854,-0.5608420372009277,-0.6756781339645386
307.606,-1.2749913930892944,0.42224371433258057,9.709766387939453,0.3520309627056122,-0.542910635471344,-0.6259704232215881
307.6227,-1.044641137123108,0.6109620928764343,9.856478691101074,0.31095239520072937,-0.5294246077537537,-0.6737979054450989
307.6394,-1.1070913076400757,1.1587202548980713,9.517210960388184,0.29916465282440186,-0.5373801589012146,-0.6920386552810669
307.656,-1.1430034637451172,1.3849577903747559,9.455079078674316,0.24471041560173035,-0.569601833820343,-0.6400324106216431
307.6727,-1.346221685409546,1.6567034721374512,9.769440650939941,0.22576728463172913,-0.5909905433654785,-0.5089684724807739
307.6894,-1.5191935300827026,1.5702553987503052,9.989764213562012,0.2484104186296463,-0.5989906191825867,-0.2713688611984253
307.706,-1.6094508171081543,1.1522599458694458,9.779346466064453,0.2598395347595215,-0.6160880327224731,-0.07495398074388504
307.7227,-1.5797165632247925,0.8736649751663208,9.75584602355957,0.2512030005455017,-0.6357777118682861,-0.009973284788429737
307.7394,-1.7780300378799438,0.9414018988609314,9.921181678771973,0.23973877727985382,-0.6464269757270813,0.022879622876644135
307.756,-1.968064785003662,0.7465786933898926,9.984472274780273,0.2308267056941986,-0.6462298035621643,0.008197469636797905
307.7727,-1.9960274696350098,0.522273600101471,10.16327953338623,0.2250414937734604,-0.6498630046844482,-0.08166728913784027
307.7894,-1.9360297918319702,0.18443022668361664,10.25134563446045,0.2262907475233078,-0.6635499596595764,-0.20224688947200775
307.806,-1.7453850507736206,0.0647083967924118,10.178041458129883,0.23120442032814026,-0.6850544810295105,-0.4019277095794678
307.8227,-1.5538434982299805,0.32362061738967896,9.838869094848633,0.2355213165283203,-0.7206143736839294,-0.5584985613822937
307.8394,-1.4117058515548706,0.8649870157241821,9.88139820098877,0.24349655210971832,-0.8269351720809937,-0.6145521998405457
307.856,-1.5206429958343506,1.3570557832717896,10.020867347717285,0.215736523270607,-0.8907119631767273,-0.576599657535553
307.8727,-1.6319677829742432,1.8166921138763428,10.00072956085205,0.1850268393754959,-0.9745491147041321,-0.5221921801567078
307.8894,-1.6839174032211304,2.2276878356933594,10.38792896270752,0.17269165813922882,-1.0627825260162354,-0.35302746295928955
307.906,-1.8349823951721191,1.9586212635040283,10.605589866638184,0.16253092885017395,-1.1493769884109497,-0.1578027755022049
307.9227,-1.955283522605896,1.3333311080932617,10.810904502868652,0.15755422413349152,-1.2423105239868164,-0.04546607285737991
307.9394,-2.080723524093628,0.6295308470726013,10.845343589782715,0.1596776247024536,-1.3227845430374146,-0.06812025606632233
307.956,-2.112553358078003,0.43849119544029236,10.72980785369873,0.14308349788188934,-1.4041261672973633,-0.2105836421251297
307.9727,-1.984521746635437,0.5083972215652466,10.960223197937012,0.12408950179815292,-1.490418553352356,-0.32164400815963745
307.9894,-1.4778937101364136,0.7943963408470154,11.193952560424805,0.09930217266082764,-1.6195299625396729,-0.3515160083770752
308.006,-1.0154004096984863,0.4715505838394165,11.412389755249023,0.11381310969591141,-1.7651766538619995,-0.24661773443222046
308.0227,-0.644553542137146,0.1466933786869049,11.34108829498291,0.1557960957288742,-1.9251075983047485,-0.1827830672264099
308.0394,-0.27943986654281616,-0.3694593012332916,11.417816162109375,0.20754575729370117,-2.079406976699829,-0.223643496632576
308.056,-0.0399986170232296,-0.8300937414169312,12.15717887878418,0.2850295305252075,-2.2060015201568604,-0.3501596450805664
308.0727,-0.7184451222419739,-2.059502124786377,13.2884521484375,0.4271410405635834,-2.2898616790771484,-0.5163843631744385
308.0894,-0.6480520367622375,-2.561336040496826,13.132855415344238,0.5535266399383545,-2.382678508758545,-1.247833251953125
308.106,-2.0524239540100098,-1.2115073204040527,12.071932792663574,0.5849933624267578,-2.599316120147705,-1.9449586868286133
308.1227,-3.4337563514709473,0.0779174417257309,11.675217628479004,0.6049681901931763,-2.6635231971740723,-2.5464837551116943
308.1394,-5.632606029510498,0.7295709252357483,11.658895492553711,0.7986845970153809,-2.608412027359009,-2.6789209842681885
308.156,-6.850177764892578,1.2784110307693481,10.502497673034668,0.937463104724884,-2.497126817703247,-2.5937235355377197
308.1727,-7.064629554748535,0.10906466096639633,10.419936180114746,1.046904444694519,-2.2824723720550537,-2.3291401863098145
308.1894,-6.493123531341553,-0.6630922555923462,9.332329750061035,1.0490546226501465,-1.77414071559906,-2.50160551071167
308.206,-5.556268215179443,-0.9161098599433899,7.850344181060791,1.1455520391464233,-1.2802983522415161,-2.7385804653167725
308.2227,-5.521478652954102,-0.9186991453170776,6.910514831542969,1.1763070821762085,-0.6766005754470825,-2.442560911178589
308.2394,-6.063572883605957,-0.38872456550598145,6.6048383712768555,1.2253767251968384,-0.00013958828640170395,-1.7186905145645142
308.256,-4.45437479019165,-0.4990483820438385,5.3790082931518555,1.2662566900253296,0.6866874098777771,-1.2695412635803223
308.2727,-4.319525241851807,-1.054551124572754,5.388678550720215,1.353430151939392,1.18807852268219,-0.5794677734375
308.2894,-4.647073268890381,-0.8386611938476562,5.5498857498168945,1.266581654548645,1.7804721593856812,0.005587232299149036
308.306,-6.16967248916626,-1.7569507360458374,5.791886329650879,1.1479350328445435,2.3452932834625244,0.8249177932739258
308.3227,-5.618338108062744,-2.0229320526123047,6.402342796325684,0.9839556813240051,2.8299663066864014,1.2233731746673584
308.3394,-5.348956108093262,-2.8042187690734863,6.983214855194092,0.8345987200737,3.3491926193237305,1.481519341468811
308.356,-5.707820415496826,-3.4123270511627197,7.05290412902832,0.5661905407905579,3.8071250915527344,1.1536599397659302
308.3727,-6.1639838218688965,-4.424947738647461,7.522008419036865,0.17763902246952057,4.084298610687256,0.5458303093910217
308.3894,-5.7657470703125,-5.609745502471924,8.951920509338379,-0.1759326457977295,4.418887138366699,-0.3565000593662262
308.406,-5.446597099304199,-5.068276405334473,8.603732109069824,-0.40500420331954956,4.648237228393555,-1.5839282274246216
308.4227,-5.553219318389893,-3.1184680461883545,8.558204650878906,-0.41569983959198,4.83054780960083,-2.252061367034912
308.4394,-6.47727632522583,-0.674932599067688,9.700851440429688,-0.14334775507450104,4.961930274963379,-2.198366403579712
308.456,-7.04489803314209,0.9302726984024048,10.858461380004883,0.20568035542964935,5.049996852874756,-1.2820780277252197
308.4727,-5.7217817306518555,0.17445580661296844,11.058448791503906,0.3527087867259979,5.028020858764648,-0.19467313587665558
308.4894,-4.409943580627441,-0.8882721662521362,11.721012115478516,0.2705039083957672,4.921723365783691,0.36356547474861145
308.506,-4.2466630935668945,-0.6282162070274353,11.94370174407959,0.043357327580451965,4.791433811187744,0.5275546312332153
308.5227,-3.6433942317962646,0.11883590370416641,12.351798057556152,-0.20706646144390106,4.623608112335205,0.6297966837882996
308.5394,-3.7856616973876953,0.18447062373161316,12.850050926208496,-0.36919286847114563,4.407484531402588,0.8318111300468445
308.556,-2.722172498703003,0.7311265468597412,11.675089836120605,-0.3691989779472351,4.116036415100098,0.8406609892845154
308.5727,-2.22786808013916,-1.2379542589187622,10.286321640014648,-0.21597060561180115,3.541921854019165,0.9341621994972229
308.5894,-2.048330068588257,-1.5577794313430786,7.0408782958984375,0.09243173152208328,2.7547338008880615,0.38600456714630127
308.606,-0.5797813534736633,-0.25422754883766174,4.56785774230957,0.3661777675151825,1.5907646417617798,-0.3535073399543762
308.6227,-0.846365213394165,0.2948354184627533,5.050671100616455,0.22913992404937744,0.3503924608230591,-0.9886226654052734
308.6394,-2.098787307739258,1.5373576879501343,6.070096492767334,-0.0036959617864340544,-0.7068849802017212,-1.1806879043579102
308.656,-2.8913140296936035,2.2474961280822754,6.471001625061035,-0.05865629017353058,-1.5164459943771362,-0.8283324241638184
308.6727,-0.6612014770507812,2.7545604705810547,8.185430526733398,-0.021722400560975075,-2.0060336589813232,-0.5236045122146606
308.6894,4.164242267608643,1.1222286224365234,12.537821769714355,0.09815847873687744,-1.536330223083496,-0.09995594620704651
308.706,6.011379241943359,-0.03570391610264778,14.039632797241211,0.36719977855682373,-0.908601701259613,0.3551575243473053
308.7227,4.15678071975708,-0.8304463624954224,14.160602569580078,0.3509051501750946,-1.0065401792526245,0.599407970905304
308.7394,0.2372901290655136,1.046332597732544,15.087968826293945,0.2068338543176651,-1.5213693380355835,0.7847564220428467
308.756,-0.3956054449081421,-0.13184818625450134,11.160090446472168,0.3672262728214264,-1.7230772972106934,1.5198746919631958
308.7727,-0.8217790126800537,-1.0975878238677979,8.259702682495117,0.5338923335075378,-1.7793797254562378,1.8675700426101685
308.7894,-1.6254687309265137,0.5779567956924438,8.07754898071289,0.5625101923942566,-1.7578545808792114,1.4761552810668945
308.806,-3.4069643020629883,2.765277624130249,9.450410842895508,0.588951826095581,-1.7022595405578613,1.4919233322143555
308.8227,-2.9158856868743896,1.5359649658203125,11.36843204498291,0.6798057556152344,-1.5519542694091797,1.9593572616577148
308.8394,-2.033769130706787,-1.8414084911346436,11.99927806854248,0.6721965074539185,-1.2411407232284546,1.5968167781829834
308.856,-1.3363316059112549,-2.6016218662261963,10.373531341552734,0.6021466851234436,-1.073134422302246,0.3811133801937103
308.8727,-1.3802565336227417,-1.343370795249939,10.336129188537598,0.531296968460083,-0.9855387806892395,-0.6451190114021301
308.8894,-1.3384031057357788,-0.3128158748149872,10.290217399597168,0.5035673379898071,-0.8801934123039246,-1.0445013046264648
308.906,-0.9887481927871704,0.3588789701461792,10.342544555664062,0.5164666175842285,-0.8396092653274536,-1.1372045278549194
308.9227,-1.0237226486206055,1.7297441959381104,10.71591567993164,0.5286886096000671,-0.7884289622306824,-0.8687682151794434
308.9394,-1.4037425518035889,2.2472050189971924,10.574289321899414,0.5448287129402161,-0.7238220572471619,-0.3569223880767822
308.956,-1.0770183801651,1.2373020648956299,10.250726699829102,0.5417341589927673,-0.6321195363998413,-0.11537705361843109
308.9727,-0.6669763922691345,-0.1914428025484085,9.772270202636719,0.4106898009777069,-0.5661734342575073,-0.4877381920814514
308.9894,-0.5285100936889648,-0.7626042366027832,9.847793579101562,0.28098490834236145,-0.5506632924079895,-1.1719897985458374
309.006,-0.640765368938446,0.1945033073425293,10.06710433959961,0.25527533888816833,-0.5399905443191528,-1.5951539278030396
309.0227,-0.4818037450313568,1.417799949645996,10.057677268981934,0.2607250213623047,-0.5366114377975464,-1.5705945491790771
309.0394,-0.5183876752853394,2.1306979656219482,9.869980812072754,0.26089125871658325,-0.543567419052124,-1.2852128744125366
309.056,-0.3061070442199707,1.6854785680770874,9.640169143676758,0.2333226352930069,-0.5434824228286743,-1.126775860786438
309.0727,-0.31090882420539856,1.3557546138763428,9.7900972366333,0.2032753974199295,-0.5722026228904724,-1.1985224485397339
309.0894,-0.7874090075492859,2.119936943054199,9.790834426879883,0.23592664301395416,-0.6033313274383545,-1.0809335708618164
309.106,-0.8944550156593323,1.742370367050171,9.723689079284668,0.18786834180355072,-0.617373526096344,-0.8257272839546204
309.1227,-1.073620319366455,1.6676645278930664,9.841052055358887,0.15257255733013153,-0.6687706112861633,-0.6106846332550049
309.1394,-1.1068626642227173,1.4472465515136719,9.867825508117676,0.1574113816022873,-0.6822260022163391,-0.4065500497817993
309.156,-1.1466588973999023,1.0578598976135254,9.800027847290039,0.17095530033111572,-0.7025554776191711,-0.3354877233505249
309.1727,-1.1669927835464478,0.844539999961853,9.871315002441406,0.18830500543117523,-0.7229549884796143,-0.38272419571876526
309.1894,-1.1991876363754272,0.7880011200904846,9.891233444213867,0.19061319530010223,-0.7371066808700562,-0.5069531798362732
309.206,-1.2200860977172852,0.8333976864814758,9.826733589172363,0.19245727360248566,-0.7723199725151062,-0.6059597134590149
309.2227,-1.1987088918685913,0.9294705986976624,9.692593574523926,0.17900024354457855,-0.8210222721099854,-0.6599214673042297
309.2394,-1.2916680574417114,1.0635367631912231,9.733333587646484,0.16396400332450867,-0.8774319291114807,-0.6500411033630371
309.256,-1.4841822385787964,1.364851713180542,9.848631858825684,0.1664663851261139,-0.9222662448883057,-0.586079478263855
309.2727,-1.6353565454483032,1.526084542274475,9.954360008239746,0.16917936503887177,-0.9624519348144531,-0.45992183685302734
309.2894,-1.6800518035888672,1.0840120315551758,10.211959838867188,0.17214977741241455,-1.0090892314910889,-0.4102025330066681
309.3061,-1.4045315980911255,1.080448865890503,10.174586296081543,0.16356851160526276,-1.062725305557251,-0.4606640338897705
309.3227,-1.5082565546035767,1.6310189962387085,10.405893325805664,0.1581965982913971,-1.1428602933883667,-0.43476438522338867
309.3394,-1.8215880393981934,1.8067667484283447,10.55896282196045,0.1421583890914917,-1.2105286121368408,-0.29977181553840637
309.3561,-2.0144758224487305,1.5832668542861938,10.640796661376953,0.14352256059646606,-1.2704765796661377,-0.19204957783222198
309.3727,-1.7630940675735474,1.1180732250213623,10.711736679077148,0.14942637085914612,-1.3456428050994873,-0.16508392989635468
309.3894,-1.8615636825561523,1.2063080072402954,10.816676139831543,0.1274164617061615,-1.4535858631134033,-0.24118292331695557
309.4061,-1.671484112739563,1.0942661762237549,11.190974235534668,0.10203701257705688,-1.571284294128418,-0.27658575773239136
309.4227,-1.3668828010559082,0.953262984752655,11.660917282104492,0.06803891807794571,-1.700791835784912,-0.2537223994731903
309.4394,-0.8769147396087646,0.3150881230831146,11.8126802444458,0.05897857993841171,-1.8305586576461792,-0.19999778270721436
309.4561,-0.5150009989738464,-0.19604673981666565,11.515802383422852,0.04731151461601257,-1.987324833869934,-0.13072381913661957
309.4727,-0.33977216482162476,-1.3445216417312622,11.600072860717773,0.09969955682754517,-2.1297194957733154,-0.03892020881175995
309.4894,-0.3985350430011749,-2.962939977645874,11.924182891845703,0.19984328746795654,-2.2344777584075928,-0.1031079962849617
309.5061,0.353079229593277,-5.595968246459961,12.273614883422852,0.27034637331962585,-2.3132147789001465,-0.638494610786438
309.5227,0.11901310086250305,-6.132297039031982,12.054128646850586,0.2578214406967163,-2.377805709838867,-1.7994188070297241
309.5394,-2.7901248931884766,-1.833921194076538,10.841144561767578,0.07358691841363907,-2.504924774169922,-2.8574628829956055
309.5561,-4.884289741516113,1.7119802236557007,10.355596542358398,-0.01683814637362957,-2.6546244621276855,-3.3712055683135986
309.5727,-5.959458351135254,2.6268322467803955,12.362777709960938,0.1463290899991989,-2.7291483879089355,-2.8584766387939453
309.5894,-6.875514984130859,2.184206485748291,12.812880516052246,0.41618162393569946,-2.5064644813537598,-2.022700786590576
309.6061,-7.58234977722168,1.5327626466751099,11.558707237243652,0.4798537492752075,-2.275815963745117,-1.3070570230484009
309.6227,-7.886617183685303,1.261972427368164,9.739879608154297,0.4624428153038025,-1.865763545036316,-1.0184093713760376
309.6394,-7.502843379974365,0.9766016602516174,8.636919975280762,0.5105819702148438,-1.2222416400909424,-1.1748958826065063
309.6561,-4.62761116027832,-0.5520235300064087,7.007242679595947,0.640774667263031,-0.524620532989502,-1.389772891998291
309.6727,-4.2409234046936035,-1.5283600091934204,6.136222839355469,0.7134894728660583,0.16779650747776031,-1.515318751335144
309.6894,-4.731866836547852,-1.246024489402771,4.859177589416504,0.758285641670227,0.7762542366981506,-1.482295274734497
309.7061,-5.557087421417236,-0.8346580862998962,4.619520664215088,0.7421296238899231,1.4665052890777588,-1.4206523895263672
309.7227,-5.029202461242676,-0.8598259687423706,4.398843288421631,0.626200258731842,2.0844006538391113,-1.3045752048492432
309.7394,-5.2957234382629395,-0.6003113985061646,5.132126331329346,0.44908854365348816,2.7006869316101074,-1.0177479982376099
309.7561,-5.590531826019287,0.09091748297214508,6.106333255767822,0.2896474003791809,3.219482421875,-0.5789363384246826
309.7727,-5.254479885101318,-0.2342347949743271,7.135097980499268,0.3379647433757782,3.698129177093506,-0.09308391809463501
309.7894,-5.911996841430664,0.0995958223938942,8.000667572021484,0.42188769578933716,4.147511005401611,0.36526718735694885
309.8061,-6.621034145355225,1.3221908807754517,8.049893379211426,0.3906281590461731,4.5320258140563965,1.1058340072631836
309.8227,-6.213630199432373,1.0188978910446167,8.052101135253906,0.36302945017814636,4.808034896850586,2.0839014053344727
309.8394,-6.494159698486328,-2.01322603225708,8.321493148803711,0.2570421099662781,4.948568344116211,2.573878288269043
309.8561,-6.340263366699219,-2.783684730529785,9.17913818359375,0.05975789949297905,4.9850687980651855,2.120072364807129
309.8727,-6.044665813446045,-3.2178566455841064,11.143601417541504,-0.22071059048175812,5.060150146484375,1.3347437381744385
309.8894,-5.788053035736084,-3.285442590713501,11.562294960021973,-0.47551190853118896,5.083465576171875,0.1365102082490921
309.9061,-5.631655693054199,-1.6707651615142822,11.43348217010498,-0.45367586612701416,5.062332630157471,-0.766678512096405
309.9227,-5.0166096687316895,-0.009203897789120674,11.504127502441406,-0.248555988073349,4.956230640411377,-1.0614465475082397
309.9394,-4.144135475158691,1.2478681802749634,12.057412147521973,0.003551062196493149,4.727159023284912,-0.9541159272193909
309.9561,-3.2372655868530273,0.7869675755500793,12.33712387084961,0.30935966968536377,4.375263690948486,-0.6798223257064819
309.9727,-4.458066463470459,-1.4612425565719604,11.708606719970703,0.5769661068916321,3.878974437713623,-0.5773565769195557
309.9894,-2.113233804702759,-1.9835283756256104,9.16462516784668,0.5536757111549377,3.2788569927215576,-1.7541825771331787
310.0061,-1.4553937911987305,-2.515378952026367,7.4325337409973145,0.541284441947937,2.258328676223755,-2.681417942047119
310.0227,-1.8189687728881836,1.4152553081512451,5.561041831970215,0.5322247743606567,1.2386447191238403,-3.26857852935791
310.0394,-2.04899525642395,2.9865124225616455,4.37802267074585,0.3426913619041443,0.028980109840631485,-2.538801431655884
310.0561,-2.900684356689453,2.7569024562835693,5.592892169952393,0.16125617921352386,-0.9580495953559875,-1.5056097507476807
310.0727,-1.980492115020752,1.4650287628173828,8.044994354248047,0.0910792425274849,-1.524882435798645,-0.7481819987297058
310.0894,2.3629369735717773,-1.2710168361663818,11.25887680053711,-0.07030866295099258,-1.602699875831604,-0.3057231605052948
310.1061,6.276914596557617,-2.2388365268707275,14.111504554748535,-0.1361422836780548,-0.9924238324165344,0.11492259055376053
310.1227,3.438059091567993,2.0006444454193115,14.272241592407227,-0.023488963022828102,-0.8055126667022705,1.0424790382385254
310.1394,0.820817232131958,1.9493168592453003,13.028098106384277,0.046630583703517914,-1.1447724103927612,2.534874200820923
310.1561,0.5265594124794006,-0.5236682295799255,10.933241844177246,0.04199615865945816,-1.3756154775619507,3.333653211593628
310.1727,-0.42988520860671997,-0.09591280668973923,9.334662437438965,0.062183767557144165,-1.4528133869171143,3.0495002269744873
310.1894,-2.842963218688965,3.0043036937713623,9.00987720489502,0.21540671586990356,-1.6656845808029175,2.5205013751983643
310.2061,-2.595385789871216,3.1383023262023926,10.598148345947266,0.5090274810791016,-1.7448081970214844,2.913926601409912
310.2227,-1.2163747549057007,-2.5129780769348145,12.232110977172852,0.6262440085411072,-1.5293642282485962,2.9909756183624268
310.2394,0.08940669894218445,-6.601874828338623,9.977280616760254,0.6745191812515259,-1.270601749420166,0.9524935483932495
310.2561,-0.5360387563705444,-4.571933746337891,8.704614639282227,0.43899208307266235,-1.1782640218734741,-1.3190460205078125
310.2727,-1.3365589380264282,-0.24503861367702484,9.811198234558105,0.24045130610466003,-1.1149929761886597,-2.18858003616333
310.2894,-1.902190089225769,4.142043113708496,10.750448226928711,0.30299052596092224,-1.0034620761871338,-1.2498990297317505
310.3061,-1.682352066040039,4.928750514984131,10.924206733703613,0.43030253052711487,-0.8648616075515747,0.5024057626724243
310.3227,-0.8347475528717041,1.3558872938156128,10.255114555358887,0.46393510699272156,-0.756271481513977,1.320791244506836
310.3394,0.004732287023216486,-1.4251686334609985,10.005184173583984,0.39545777440071106,-0.7257352471351624,0.7006822228431702
310.3561,-0.07272852212190628,-1.1882951259613037,10.34934139251709,0.347063273191452,-0.7146913409233093,-0.29382622241973877
310.3727,-0.6634201407432556,0.5718261003494263,10.307683944702148,0.3182874023914337,-0.6850547790527344,-0.8217383027076721
310.3894,-1.4502003192901611,1.786636233329773,9.948262214660645,0.28691554069519043,-0.6439104080200195,-0.8662496209144592
310.4061,-1.6073535680770874,1.790515661239624,10.122897148132324,0.24832876026630402,-0.5815203785896301,-0.7302666306495667
310.4227,-1.4294211864471436,1.132739782333374,10.417540550231934,0.18517959117889404,-0.4787451922893524,-0.560258686542511
310.4394,-1.468117594718933,0.5582257509231567,10.303894996643066,0.13326407968997955,-0.3998711407184601,-0.5090829730033875
310.4561,-1.1632630825042725,0.3747974634170532,10.188640594482422,0.12116526812314987,-0.3445524275302887,-0.6155028343200684
310.4727,-1.021826982498169,0.5009453892707825,10.075753211975098,0.14902156591415405,-0.3067137897014618,-0.814264178276062
310.4894,-0.8228227496147156,0.732938289642334,9.681121826171875,0.08117396384477615,-0.27236407995224,-0.9963544607162476
310.5061,-0.6549012660980225,1.1368268728256226,9.646329879760742,0.057758890092372894,-0.30161699652671814,-1.1051467657089233
310.5227,-0.3522649109363556,1.26111900806427,9.783692359924316,0.028979072347283363,-0.31496602296829224,-1.1237387657165527
310.5394,-0.2641085982322693,1.519404649734497,9.644339561462402,-0.013425563462078571,-0.3564225137233734,-1.043379306793213
310.5561,-0.3453971743583679,1.6249842643737793,9.630121231079102,-0.003945984411984682,-0.4170253872871399,-0.8966259956359863
310.5727,-0.6234056353569031,1.5590099096298218,9.615854263305664,-0.02326214499771595,-0.4494049847126007,-0.7286036014556885
310.5894,-0.7178545594215393,1.0677059888839722,9.68459415435791,-0.0247822143137455,-0.5273503065109253,-0.6481151580810547
310.6061,-0.8705323338508606,0.7514612078666687,10.083793640136719,-0.014021267183125019,-0.5258610844612122,-0.6142078638076782
310.6227,-1.0733006000518799,0.3710354268550873,9.982531547546387,-0.022105354815721512,-0.524053692817688,-0.6717907786369324
310.6394,-1.3008673191070557,0.25229117274284363,9.959124565124512,-0.014143296517431736,-0.5407379269599915,-0.7336459755897522
310.6561,-1.379465937614441,-0.010196415707468987,9.958395004272461,-0.007937134243547916,-0.5520119071006775,-0.8280359506607056
310.6727,-1.4972509145736694,-0.07488305121660233,9.94482135772705,-0.02661517634987831,-0.5650368332862854,-0.9699598550796509
310.6894,-1.7090424299240112,0.22110268473625183,10.063586235046387,-0.047371864318847656,-0.5606122016906738,-1.0781092643737793
310.7061,-1.6992378234863281,0.5482790470123291,10.07546329498291,-0.06245608255267143,-0.5351138710975647,-1.0971691608428955
310.7227,-1.9111624956130981,0.8794599175453186,10.070630073547363,-0.0867769867181778,-0.5462220907211304,-1.0986137390136719
310.7394,-2.623072862625122,1.0738939046859741,10.236774444580078,-0.10781794041395187,-0.5339407324790955,-1.0748945474624634
310.7561,-2.827890634536743,0.9647314548492432,10.200294494628906,-0.12852534651756287,-0.4896182119846344,-1.154289722442627
310.7727,-2.893798351287842,0.9825787544250488,10.2102632522583,-0.1378868818283081,-0.4277719557285309,-1.1443060636520386
310.7894,-2.778937816619873,0.776517391204834,10.204728126525879,-0.17198757827281952,-0.37828677892684937,-1.1413438320159912
310.8061,-2.737130641937256,0.7899625301361084,10.309463500976562,-0.18748340010643005,-0.3332507610321045,-1.1694958209991455
310.8227,-2.290846109390259,0.5281931161880493,10.349831581115723,-0.20801372826099396,-0.3046967089176178,-1.2402299642562866
310.8394,-1.7950447797775269,0.5542291402816772,10.184905052185059,-0.2216426134109497,-0.29534026980400085,-1.2547067403793335
310.8561,-1.485418677330017,0.647641658782959,9.989330291748047,-0.21596358716487885,-0.3175711929798126,-1.2242907285690308
310.8727,-1.1427404880523682,0.6267173290252686,9.836016654968262,-0.17553560435771942,-0.40413472056388855,-1.147810459136963
310.8894,-1.5553492307662964,0.44040948152542114,9.778334617614746,-0.08237101137638092,-0.4761865437030792,-1.0777581930160522
310.9061,-1.7629234790802002,0.6522945165634155,9.495960235595703,0.054665420204401016,-0.5264114141464233,-1.219245195388794
310.9227,-2.0781188011169434,1.1191694736480713,8.97130298614502,0.26616042852401733,-0.543614387512207,-1.5284273624420166
310.9394,-2.3821730613708496,1.1258054971694946,8.534340858459473,0.49276983737945557,-0.5464377403259277,-2.020275115966797
310.9561,-2.8400092124938965,0.7416880130767822,8.83391284942627,0.6019935011863708,-0.5280618667602539,-2.640688419342041
310.9728,-3.6009087562561035,0.38345709443092346,9.622714042663574,0.6366683840751648,-0.45271068811416626,-3.2616658210754395
310.9894,-4.2074127197265625,0.1496509313583374,10.250467300415039,0.6796412467956543,-0.3228817284107208,-3.7289042472839355
311.0061,-4.54902982711792,-0.15908673405647278,10.328015327453613,0.7901298403739929,-0.15265321731567383,-4.009869575500488
311.0228,-4.31333589553833,-0.43803513050079346,10.32824993133545,0.9460377097129822,-0.02364652045071125,-4.244561195373535
311.0394,-4.006216526031494,-0.5923266410827637,10.690065383911133,1.0852795839309692,0.09917955100536346,-4.456981182098389
311.0561,-3.764420747756958,-0.9921196699142456,10.51648235321045,1.2400314807891846,0.2495361864566803,-4.66362190246582
311.0728,-3.936187744140625,-1.4560240507125854,10.255805969238281,1.3896706104278564,0.406878262758255,-4.878868103027344
311.0894,-3.7095561027526855,-2.162963628768921,10.116571426391602,1.497536301612854,0.4918517470359802,-5.22590446472168
311.1061,-3.973703384399414,-2.690807580947876,9.867294311523438,1.5510139465332031,0.566664457321167,-5.614934921264648
311.1228,-4.586686611175537,-2.6288671493530273,9.246516227722168,1.547025203704834,0.6272865533828735,-5.941835403442383
311.1394,-5.034846782684326,-2.5984957218170166,8.768515586853027,1.4615819454193115,0.5416997075080872,-6.067881107330322
311.1561,-3.512794256210327,-3.450376272201538,9.194427490234375,1.2226433753967285,0.39017340540885925,-6.1169657707214355
311.1728,-3.6869866847991943,-2.4924983978271484,9.587479591369629,0.9672306776046753,0.3469913899898529,-5.800764083862305
311.1894,-3.4139575958251953,-1.0904537439346313,8.367841720581055,0.7996401190757751,0.3267170786857605,-4.856476306915283
311.2061,-2.240525007247925,-1.4117556810379028,8.632402420043945,0.7111659049987793,0.2911023795604706,-3.734178066253662
311.2228,-1.8157141208648682,-1.979088306427002,9.177417755126953,0.5993034839630127,0.2938482463359833,-2.8562815189361572
311.2394,-1.4731178283691406,-2.4769325256347656,9.243342399597168,0.4455651640892029,0.3160759210586548,-2.2848007678985596
311.2561,-1.0726144313812256,-3.0155725479125977,9.632247924804688,0.20131796598434448,0.3472336530685425,-2.0758020877838135
311.2728,-0.9627033472061157,-2.8711376190185547,9.971732139587402,-0.0699974074959755,0.393982470035553,-2.138829231262207
311.2894,-0.8662052154541016,-2.454214572906494,10.11706829071045,-0.26242220401763916,0.45345163345336914,-2.2138285636901855
311.3061,-0.9391191601753235,-2.7585976123809814,10.028273582458496,-0.32574576139450073,0.5168957114219666,-2.177884101867676
311.3228,-0.9317535758018494,-2.7324135303497314,10.220842361450195,-0.2587216794490814,0.6618257761001587,-2.249762535095215
311.3394,-0.6791776418685913,-2.553002119064331,10.201629638671875,-0.15546143054962158,0.7946907877922058,-2.4896926879882812
311.3561,-0.3242252767086029,-2.3186686038970947,10.277738571166992,-0.13276824355125427,0.8952721357345581,-2.7972447872161865
311.3728,-0.48424988985061646,-1.7060953378677368,10.36184024810791,-0.17974187433719635,1.016015648841858,-3.0028133392333984
311.3894,-0.4852825105190277,-1.1263220310211182,10.330689430236816,-0.24770918488502502,1.1453937292099,-3.113266706466675
311.4061,-0.38828176259994507,-0.8561335206031799,10.05518627166748,-0.29168346524238586,1.253608226776123,-3.2211155891418457
311.4228,-0.1575222909450531,-0.38049614429473877,9.928709030151367,-0.3080984652042389,1.3350197076797485,-3.322817325592041
311.4394,-0.252530962228775,0.1415940821170807,9.762904167175293,-0.2828863263130188,1.3948442935943604,-3.3362908363342285
311.4561,-0.37315499782562256,0.30970504879951477,9.462141990661621,-0.2502407729625702,1.3491384983062744,-3.242647647857666
311.4728,0.07956340163946152,0.15188084542751312,9.257479667663574,-0.21697475016117096,1.2714673280715942,-3.241126775741577
311.4894,0.14872358739376068,0.4724715054035187,9.10128402709961,-0.1826704740524292,1.122443437576294,-3.3390002250671387
311.5061,-0.08113029599189758,1.3174015283584595,8.69607162475586,-0.14575302600860596,0.8823664784431458,-3.331451654434204
311.5228,0.0013334039831534028,1.7792741060256958,8.37696361541748,-0.14040429890155792,0.6033223271369934,-3.213369846343994
311.5394,-0.18869438767433167,2.3066399097442627,8.235981941223145,-0.11310041695833206,0.25873494148254395,-3.006225824356079
311.5561,-0.9911173582077026,3.2657251358032227,7.906630992889404,-0.035115718841552734,-0.14532236754894257,-2.6543972492218018
311.5728,-1.1515796184539795,3.9710090160369873,7.457828998565674,0.0717802569270134,-0.6017473340034485,-2.1654584407806396
311.5894,1.876104712486267,2.4943361282348633,9.083858489990234,0.10901405662298203,-0.7846719026565552,-1.8220312595367432
311.6061,4.272941589355469,-0.012097244150936604,11.228590965270996,0.12212412059307098,-0.49395203590393066,-1.4363871812820435
311.6228,4.027939319610596,1.0516496896743774,11.128983497619629,0.20938560366630554,-0.3529698848724365,-1.2061283588409424
311.6394,4.267160415649414,3.149571418762207,11.214967727661133,0.22426201403141022,-0.41455867886543274,-0.6070488691329956
311.6561,2.3621597290039062,5.027252197265625,11.558445930480957,0.2949754297733307,-0.520296573638916,0.7513149380683899
311.6728,0.3816620111465454,2.718216896057129,10.502984046936035,0.44654685258865356,-0.6366659998893738,2.6430461406707764
311.6894,-0.37011009454727173,-1.3033541440963745,9.76952838897705,0.5451881289482117,-0.7729637622833252,3.783872604370117
311.7061,-1.0737159252166748,-3.5619943141937256,9.451922416687012,0.6150533556938171,-0.9260686039924622,3.6061782836914062
311.7228,-0.25768306851387024,-4.928353309631348,10.112730979919434,0.6758307218551636,-0.9943742752075195,2.1873650550842285
311.7394,-0.9543120861053467,-4.316442966461182,10.505268096923828,0.7278758883476257,-0.9547168612480164,0.3477686643600464
311.7561,-1.2708587646484375,-2.810314655303955,10.104276657104492,0.6993357539176941,-0.8744350671768188,-1.0916032791137695
311.7728,-1.4354681968688965,-1.4200341701507568,10.209098815917969,0.5935770869255066,-0.8099648952484131,-2.0259475708007812
311.7894,-1.2814507484436035,-0.10345268994569778,10.203069686889648,0.5293120741844177,-0.7174651026725769,-2.553842782974243
311.8061,-1.5887502431869507,1.7110525369644165,10.392906188964844,0.48130398988723755,-0.6509273648262024,-2.455307722091675
311.8228,-1.5105845928192139,3.2827870845794678,10.328063011169434,0.4920301139354706,-0.5632195472717285,-1.7142194509506226
311.8394,-1.187510371208191,3.7351205348968506,10.15561294555664,0.5139240622520447,-0.5131824016571045,-0.6731888055801392
311.8561,-0.8871203064918518,2.9680588245391846,10.335063934326172,0.5073001980781555,-0.4822623133659363,0.10570842772722244
311.8728,-0.6649839282035828,2.2429661750793457,10.125460624694824,0.4686870276927948,-0.43700042366981506,0.5135405659675598
311.8894,-0.1935439258813858,1.3578338623046875,9.853198051452637,0.37415948510169983,-0.4336056709289551,0.5882143974304199
311.9061,0.09364669024944305,0.5683397054672241,9.858437538146973,0.2693025469779968,-0.46649041771888733,0.21077698469161987
311.9228,0.1911606788635254,0.34376585483551025,9.854691505432129,0.19668778777122498,-0.5205363631248474,-0.2590738534927368
311.9394,0.1390119194984436,0.4483836591243744,9.747467994689941,0.16300831735134125,-0.564844012260437,-0.4968898594379425
311.9561,-0.0752745047211647,0.8171383142471313,9.705098152160645,0.14025399088859558,-0.6084772944450378,-0.602118194103241
311.9728,-0.16066260635852814,1.0508910417556763,9.551021575927734,0.11339887976646423,-0.6578571200370789,-0.5558155179023743
311.9894,-0.20021586120128632,1.299678087234497,9.569671630859375,0.08680734038352966,-0.7091541886329651,-0.4306899309158325
312.0061,-0.4676603376865387,1.3455235958099365,9.52137279510498,0.08099697530269623,-0.7526150345802307,-0.23703640699386597
312.0228,-0.9011828303337097,0.9897810816764832,9.613020896911621,0.09273608028888702,-0.7972212433815002,-0.12201700359582901
312.0394,-1.3855019807815552,0.6758102178573608,9.753494262695312,0.11644851416349411,-0.8108049631118774,-0.10460025817155838
312.0561,-1.8419959545135498,0.6002224087715149,10.010172843933105,0.13588231801986694,-0.7928162217140198,-0.054475706070661545
312.0728,-2.254443645477295,0.34617578983306885,10.049607276916504,0.14829589426517487,-0.7523629665374756,-0.04902102053165436
312.0894,-2.248187303543091,0.4245756268501282,10.050756454467773,0.13774195313453674,-0.7088679671287537,-0.12362359464168549
312.1061,-2.587585210800171,0.7201817035675049,10.12531566619873,0.14130352437496185,-0.6517550945281982,-0.13543541729450226
312.1228,-2.7430918216705322,0.554756760597229,10.085383415222168,0.14287534356117249,-0.6005116105079651,-0.16512997448444366
312.1394,-2.530585765838623,0.324814110994339,10.163824081420898,0.1312233805656433,-0.5529472827911377,-0.274936705827713
312.1561,-2.4236016273498535,0.5252178907394409,10.278864860534668,0.12215211987495422,-0.5193557143211365,-0.3600587844848633
312.1728,-2.249140739440918,0.6757616996765137,10.201078414916992,0.12014633417129517,-0.5047582387924194,-0.36114221811294556
312.1894,-1.9087324142456055,0.7592353224754333,10.075342178344727,0.1147397980093956,-0.5089594721794128,-0.35825690627098083
312.2061,-1.481666922569275,0.7896002531051636,10.014130592346191,0.11905832588672638,-0.5340311527252197,-0.3460181951522827
312.2228,-1.1439952850341797,0.7992018461227417,10.001729965209961,0.11909382045269012,-0.6063271164894104,-0.3236202597618103
312.2394,-0.7095476984977722,0.6742216944694519,9.930475234985352,0.11704780161380768,-0.7162895798683167,-0.3042355477809906
312.2561,-0.6019944548606873,0.5980578064918518,9.860342025756836,0.11164349317550659,-0.8722189664840698,-0.2739417850971222
312.2728,-0.7700563669204712,0.5674946904182434,9.881226539611816,0.08900827169418335,-1.037215232849121,-0.276958703994751
312.2894,-0.9725406169891357,1.0906463861465454,10.387065887451172,0.05801282450556755,-1.1925560235977173,-0.23896650969982147
312.3061,-1.289957880973816,1.5851296186447144,10.688166618347168,0.029502365738153458,-1.3071842193603516,-0.13874253630638123
312.3228,-1.8659254312515259,1.6322118043899536,10.867683410644531,0.018427876755595207,-1.414053201675415,0.001770712318830192
312.3394,-2.204859495162964,0.8360615968704224,11.019524574279785,0.02617810107767582,-1.4973199367523193,0.06762056797742844
312.3561,-2.4727864265441895,0.12171708792448044,10.968360900878906,0.024878179654479027,-1.5693597793579102,0.010557151399552822
312.3728,-2.5244388580322266,-0.028835974633693695,10.805254936218262,0.00924368854612112,-1.640616536140442,-0.11256919056177139
312.3894,-2.497060775756836,0.23154419660568237,11.09559440612793,-0.013652576133608818,-1.7096999883651733,-0.15186861157417297
312.4061,-1.972629427909851,0.34581542015075684,11.458550453186035,-0.0299615990370512,-1.7791037559509277,-0.13338860869407654
312.4228,-1.6092500686645508,0.011105741374194622,11.485050201416016,-0.024519115686416626,-1.854710340499878,-0.014295517466962337
312.4394,-1.209242582321167,-0.11646164208650589,11.01151180267334,-0.01882961206138134,-1.957740306854248,0.04911786690354347
312.4561,-0.8779006004333496,-0.9213280081748962,10.849895477294922,0.00371960224583745,-2.068828582763672,0.10943703353404999
312.4728,-0.2351820170879364,-1.932928204536438,11.051458358764648,0.018228866159915924,-2.1781468391418457,0.0801486223936081
312.4894,0.35373520851135254,-3.5015716552734375,11.747686386108398,0.013636319898068905,-2.2984085083007812,-0.3273261785507202
312.5061,-0.17992191016674042,-2.727705955505371,12.352255821228027,-0.08516810834407806,-2.440464735031128,-1.0171245336532593
312.5228,-2.17606782913208,-0.42579159140586853,12.505661010742188,-0.2642822563648224,-2.6481375694274902,-1.5356584787368774
312.5394,-3.325991153717041,0.9996878504753113,13.228090286254883,-0.3493538498878479,-2.6656973361968994,-1.6127510070800781
312.5561,-4.259291648864746,1.2508848905563354,13.352448463439941,-0.24849873781204224,-2.4681344032287598,-1.3940695524215698
312.5728,-5.804142951965332,0.04454275965690613,12.028197288513184,0.025052405893802643,-2.200122594833374,-1.1508773565292358
312.5894,-8.155529022216797,-1.0607900619506836,10.87684440612793,0.17696329951286316,-1.8777498006820679,-0.9520184993743896
312.6061,-8.592436790466309,0.4354855418205261,9.183972358703613,0.029458291828632355,-1.7554436922073364,-1.2058709859848022
312.6228,-6.517395496368408,0.8483971357345581,8.592110633850098,-0.06611321866512299,-1.1953505277633667,-1.6875444650650024
312.6395,-3.7624549865722656,-0.15740403532981873,7.873190879821777,0.1231272965669632,-0.4501071870326996,-1.9340375661849976
312.6561,-5.2136759757995605,-0.31371986865997314,6.709803104400635,0.3540494740009308,0.2443329393863678,-1.5338414907455444
312.6728,-5.620204925537109,0.4444008469581604,5.599531173706055,0.5164885520935059,0.8668322563171387,-1.1686633825302124
312.6895,-4.6827473640441895,0.6682491302490234,4.811923027038574,0.615847647190094,1.5335873365402222,-0.7763983011245728
312.7061,-5.244257926940918,-0.8113754987716675,4.847858905792236,0.5876798033714294,2.1209681034088135,-0.16360662877559662
312.7228,-5.01713228225708,-0.8932251930236816,5.73318338394165,0.42663949728012085,2.681187868118286,-0.11030231416225433
312.7395,-5.220309734344482,-0.8604385852813721,6.700550079345703,0.3338637351989746,3.1688783168792725,0.1470346748828888
312.7561,-5.683594703674316,-0.9678656458854675,7.525181770324707,0.30028340220451355,3.597884178161621,0.3493059277534485
312.7728,-6.006096363067627,-0.8448330163955688,7.730255603790283,0.2602575421333313,4.017788887023926,0.43592411279678345
312.7895,-6.510694980621338,0.24502184987068176,8.07504940032959,0.2006857693195343,4.393997669219971,0.6100852489471436
312.8061,-6.6010589599609375,0.2798646092414856,7.710561752319336,0.15505775809288025,4.649012565612793,1.1171997785568237
312.8228,-6.337794303894043,-1.393746256828308,7.831732749938965,0.07440433651208878,4.736330986022949,1.3241208791732788
312.8395,-6.205946922302246,-1.7991774082183838,9.241087913513184,-0.035550057888031006,4.818271160125732,0.9498551487922668
312.8561,-6.173408508300781,-1.7437944412231445,10.501194953918457,-0.24444282054901123,4.930095195770264,0.36794787645339966
312.8728,-6.043764591217041,-1.3469657897949219,10.799642562866211,-0.34493204951286316,5.041926383972168,-0.1745327264070511
312.8895,-5.64385986328125,-0.4094371795654297,10.42078685760498,-0.3045813739299774,5.112586975097656,-0.2656429708003998
312.9061,-5.1586809158325195,0.7703772783279419,11.14622688293457,-0.20854520797729492,5.088096618652344,0.0625847578048706
312.9228,-4.546371936798096,1.3492558002471924,12.534571647644043,-0.13597723841667175,4.975122451782227,0.6983989477157593
312.9395,-3.7748703956604004,0.8352598547935486,12.962273597717285,-0.0955444723367691,4.702796459197998,1.2874579429626465
312.9561,-3.6789040565490723,0.13164262473583221,11.945402145385742,0.005966260563582182,4.236976623535156,1.6922032833099365
312.9728,-4.517273902893066,-0.7710196375846863,9.98402214050293,0.11168964952230453,3.6699059009552,1.8508434295654297
312.9895,-3.783787488937378,-0.5098118185997009,7.275842666625977,0.27171215415000916,2.8546433448791504,1.5226619243621826
313.0061,-3.057898759841919,0.2860449552536011,5.754149436950684,0.5395804047584534,1.6960234642028809,1.3159947395324707
313.0228,-2.3192713260650635,0.8167523145675659,5.164003372192383,0.5161923170089722,0.4456276297569275,0.8004637360572815
313.0395,-2.953282117843628,1.300486445426941,5.926140308380127,0.3762964606285095,-0.6821695566177368,0.38465723395347595
313.0561,-3.6688053607940674,1.5563489198684692,6.734058856964111,0.34226304292678833,-1.5752485990524292,0.25552913546562195
313.0728,0.2710261046886444,0.369204044342041,9.301406860351562,0.34084439277648926,-2.0175509452819824,0.04880892112851143
313.0895,5.445066452026367,-2.538698673248291,13.593017578125,0.3430035710334778,-1.519682765007019,0.040689051151275635
313.1061,7.167046070098877,-1.36006498336792,15.006173133850098,0.4874466359615326,-0.9520224928855896,0.3060549795627594
313.1228,-0.28102362155914307,0.09034261107444763,14.458419799804688,0.4964520335197449,-1.4076957702636719,1.622485876083374
313.1395,-1.3005579710006714,-1.54291832447052,13.476449966430664,0.5538628101348877,-1.7818870544433594,2.3548901081085205
313.1561,-1.6352556943893433,-3.8692147731781006,9.186554908752441,0.8318847417831421,-1.8003071546554565,2.4922916889190674
313.1728,-2.175041437149048,-2.1268153190612793,7.222480297088623,0.988106369972229,-1.8587449789047241,1.3791612386703491
313.1895,-4.131392478942871,1.9072860479354858,9.625977516174316,0.9292815923690796,-1.9632703065872192,0.47661301493644714
313.2061,-3.2714691162109375,2.7518115043640137,11.524861335754395,0.9227953553199768,-1.7597925662994385,1.119752287864685
313.2228,-1.7773988246917725,-0.6645891666412354,11.868938446044922,0.8936132788658142,-1.4483064413070679,1.2791788578033447
313.2395,-1.4863346815109253,-2.092071294784546,9.659770965576172,0.7461700439453125,-1.1990655660629272,0.014383234083652496
313.2561,-1.9633690118789673,-1.367773175239563,9.254120826721191,0.5222933888435364,-1.1346988677978516,-1.2348967790603638
313.2728,-1.8628746271133423,0.6923342943191528,10.482649803161621,0.46683165431022644,-1.1118823289871216,-1.4399917125701904
313.2895,-1.8533871173858643,2.6869258880615234,11.30420970916748,0.5168846845626831,-1.034153938293457,-0.7735394239425659
313.3061,-1.7440866231918335,2.3100388050079346,10.820623397827148,0.57298344373703,-0.9313498139381409,0.15582163631916046
313.3228,-1.1653531789779663,0.34077170491218567,10.22114372253418,0.6153295636177063,-0.8791000843048096,0.32585111260414124
313.3395,-1.4759267568588257,-0.1201242059469223,10.091177940368652,0.4790911078453064,-0.8283138871192932,-0.14391037821769714
313.3561,-1.5748462677001953,-0.10925136506557465,9.842867851257324,0.29731741547584534,-0.7635496854782104,-0.595098078250885
313.3728,-1.6354705095291138,0.4354294538497925,10.324851989746094,0.23453983664512634,-0.7174769639968872,-0.7770534157752991
313.3895,-1.444609522819519,0.630304753780365,10.356667518615723,0.25408995151519775,-0.7167294025421143,-0.7924860715866089
313.4061,-1.2257916927337646,0.7110314965248108,10.378350257873535,0.2458166927099228,-0.6729005575180054,-0.7212153077125549
313.4228,-0.9737470149993896,0.5778264999389648,9.957128524780273,0.20118525624275208,-0.6536157727241516,-0.7621673941612244
313.4395,-0.9794296622276306,0.6457309722900391,9.614843368530273,0.22129057347774506,-0.6720559000968933,-0.8148049116134644
313.4561,-1.0252492427825928,1.0219395160675049,9.184538841247559,0.15738412737846375,-0.6867913007736206,-0.9482303857803345
313.4728,-1.3214484453201294,1.3589308261871338,9.779094696044922,0.1274283528327942,-0.7318266034126282,-0.806551992893219
313.4895,-1.5309542417526245,1.9510844945907593,9.838397026062012,0.16179101169109344,-0.7743268609046936,-0.5312727689743042
313.5061,-1.699373722076416,1.6123048067092896,9.885150909423828,0.163458451628685,-0.8266168236732483,-0.12738722562789917
313.5228,-2.0616633892059326,0.9036611318588257,9.936492919921875,0.1193174496293068,-0.8326792120933533,0.1341775804758072
313.5395,-2.2950499057769775,0.08527696132659912,9.922073364257812,0.10441206395626068,-0.8110548853874207,0.12700824439525604
313.5561,-2.6055426597595215,-0.005825682543218136,10.151175498962402,0.1406988501548767,-0.7959403991699219,-0.02495921589434147
313.5728,-2.812631130218506,-0.052329033613204956,10.166743278503418,0.1671913117170334,-0.7635213136672974,-0.1871967762708664
313.5895,-2.633100748062134,0.010640610009431839,10.07223892211914,0.15789814293384552,-0.7342572212219238,-0.3477957546710968
313.6061,-2.45074462890625,0.33979129791259766,9.986611366271973,0.1530856341123581,-0.6988750100135803,-0.3887886106967926
313.6228,-2.307767629623413,0.7054197788238525,9.893152236938477,0.16400796175003052,-0.6934484839439392,-0.35221222043037415
313.6395,-2.1410574913024902,1.0317177772521973,9.769248962402344,0.17464852333068848,-0.7385696768760681,-0.26552218198776245
313.6561,-1.6401729583740234,1.172050952911377,9.775362968444824,0.1790863275527954,-0.7940306663513184,-0.13106398284435272
313.6728,-1.9916354417800903,1.5363022089004517,9.830937385559082,0.17215701937675476,-0.8686926960945129,-0.05013980343937874
313.6895,-1.8161863088607788,1.494908332824707,9.952284812927246,0.16026462614536285,-0.9576140642166138,0.017882296815514565
313.7061,-1.493855357170105,0.8664747476577759,10.543185234069824,0.12418625503778458,-1.0808677673339844,0.09002428501844406
313.7228,-1.0802730321884155,0.4221898317337036,10.943951606750488,0.06953342258930206,-1.20755934715271,-0.028008827939629555
313.7395,-1.1586872339248657,0.47051802277565,10.740995407104492,0.02857932634651661,-1.361931324005127,-0.07287944853305817
313.7561,-1.0190722942352295,0.39658123254776,10.863502502441406,0.0028511746786534786,-1.5403172969818115,-0.026544177904725075
313.7728,-0.4941290318965912,0.5683293342590332,11.407252311706543,-0.027352068573236465,-1.7320921421051025,0.024047816172242165
313.7895,0.34728100895881653,0.6635522842407227,12.113584518432617,-0.07912828028202057,-1.9416513442993164,0.04207747429609299
313.8061,0.9315630793571472,0.39695048332214355,12.50902271270752,-0.12872757017612457,-2.1744158267974854,0.18666532635688782
313.8228,1.7899545431137085,-0.23744459450244904,12.48082447052002,-0.13968634605407715,-2.416707992553711,0.39031359553337097
313.8395,1.819290041923523,-2.3944356441497803,12.833627700805664,-0.06548457592725754,-2.6412558555603027,0.5726829171180725
313.8561,1.7335621118545532,-5.398368835449219,13.991281509399414,0.05192260071635246,-2.78658127784729,0.3083820343017578
313.8728,0.7781699895858765,-5.27325439453125,13.2041597366333,-0.035819027572870255,-2.8599486351013184,-0.8560289144515991
313.8895,-2.541160821914673,-1.3339003324508667,12.2684907913208,-0.31489112973213196,-3.0403099060058594,-1.7181541919708252
313.9061,-3.5848233699798584,2.3839967250823975,12.22552490234375,-0.5740553736686707,-3.0455119609832764,-2.0488996505737305
313.9228,-4.170437812805176,2.5340771675109863,13.551348686218262,-0.42773985862731934,-2.866368055343628,-1.7909938097000122
313.9395,-7.151407718658447,0.42533066868782043,13.043692588806152,-0.11519737541675568,-2.4271581172943115,-1.124907374382019
313.9561,-6.957305908203125,0.7920946478843689,11.243992805480957,-0.18166306614875793,-2.1517913341522217,-0.9524324536323547
313.9728,-8.287952423095703,2.4774982929229736,9.719045639038086,-0.46717843413352966,-1.7563085556030273,-0.9820008873939514
313.9895,-5.8955078125,2.9093832969665527,8.42518138885498,-0.6483092904090881,-1.0623533725738525,-1.1421194076538086
314.0061,-3.877922534942627,1.757971167564392,8.09726619720459,-0.5513880848884583,-0.3062073290348053,-0.8723039031028748
314.0228,-5.177874565124512,1.8618555068969727,6.685091972351074,-0.4893524944782257,0.3852260410785675,-0.35442283749580383
314.0395,-5.890705585479736,1.7279618978500366,5.810158729553223,-0.43302568793296814,1.0972734689712524,0.06943567842245102
314.0561,-6.499400615692139,2.369438886642456,4.91282844543457,-0.4677678048610687,1.782663345336914,0.4163890480995178
314.0728,-6.435118198394775,1.9407355785369873,4.958430767059326,-0.6183567047119141,2.397559881210327,0.7299686074256897
314.0895,-5.520359992980957,1.9836316108703613,5.751315116882324,-0.8399655222892761,3.0295004844665527,0.8856943249702454
314.1061,-5.590421199798584,1.7509589195251465,6.363917350769043,-1.0688122510910034,3.5304787158966064,1.1666591167449951
314.1228,-6.45363187789917,1.6841201782226562,6.806985855102539,-1.2974860668182373,3.953671455383301,1.4206382036209106
314.1395,-6.5212626457214355,1.8379452228546143,7.667026996612549,-1.4484189748764038,4.328661918640137,1.5218911170959473
314.1561,-6.851593017578125,2.408963441848755,6.900885581970215,-1.337293028831482,4.629358291625977,1.7472515106201172
314.1728,-6.19428014755249,1.6129378080368042,9.917267799377441,-0.9843882322311401,4.762885570526123,2.276282787322998
314.1895,-6.031857967376709,-1.2637428045272827,9.006631851196289,-0.8611164689064026,5.191108226776123,1.668372631072998
314.2061,-6.168612957000732,0.08900877833366394,7.6475114822387695,-0.9704086184501648,5.184437274932861,0.8243159055709839
314.2228,-6.417660236358643,0.9740714430809021,11.176316261291504,-0.6720878481864929,5.321366310119629,0.7557409405708313
314.2395,-6.643038272857666,1.1582999229431152,12.607312202453613,-0.4642239511013031,5.572456359863281,1.0063241720199585
314.2561,-6.317921161651611,1.176814317703247,12.399617195129395,-0.3235447108745575,5.664137840270996,1.1334888935089111
314.2728,-5.682962894439697,1.214475154876709,12.59534740447998,-0.06902091205120087,5.582093715667725,1.1106679439544678
314.2895,-5.230761528015137,2.1459481716156006,12.624801635742188,0.07863602042198181,5.339224815368652,1.2293646335601807
314.3062,-4.830472946166992,2.3188188076019287,12.573336601257324,0.32154929637908936,4.946103572845459,1.7898404598236084
314.3228,-4.523741245269775,0.7483960390090942,11.878888130187988,0.592174768447876,4.4329328536987305,2.1044161319732666
314.3395,-5.455240249633789,0.24153569340705872,9.859503746032715,0.7709222435951233,3.7350142002105713,1.8291221857070923
314.3562,-3.585634708404541,-1.8643290996551514,7.187731742858887,0.812317430973053,2.70689058303833,0.9130399227142334
314.3728,-2.731558084487915,0.05216869339346886,4.445183277130127,0.8177195191383362,1.3862050771713257,-0.5492528676986694
314.3895,-3.3773081302642822,2.5802643299102783,3.7038729190826416,0.8058406114578247,-0.12589046359062195,-0.9650309681892395
314.4062,-5.254122257232666,3.9786159992218018,5.0975446701049805,0.7168115973472595,-1.3376961946487427,-0.47889548540115356
314.4228,-5.2634782791137695,2.7851552963256836,7.048810005187988,0.6508621573448181,-2.1993916034698486,0.3382854759693146
314.4395,1.9909061193466187,-1.1158597469329834,11.487947463989258,0.513180136680603,-2.2197461128234863,0.46724507212638855
314.4562,6.801207542419434,-3.9208908081054688,16.185997009277344,0.4777359664440155,-1.310408115386963,1.0793625116348267
314.4728,3.9969568252563477,-0.23480398952960968,16.5755672454834,0.5430744290351868,-0.856669008731842,2.4531660079956055
314.4895,-2.4851343631744385,-1.160758137702942,15.265531539916992,0.6256256103515625,-1.3648512363433838,3.9032821655273438
314.5062,-2.3019213676452637,-5.614433288574219,10.598044395446777,0.8163542747497559,-1.6664626598358154,3.7991716861724854
314.5228,-1.6719036102294922,-3.370857000350952,7.482787132263184,0.9052009582519531,-1.8631399869918823,2.3391354084014893
314.5395,-3.418138027191162,1.4351956844329834,9.466333389282227,0.9614512324333191,-2.0493991374969482,0.7663249969482422
314.5562,-3.9900150299072266,3.5852551460266113,11.36240291595459,1.1407088041305542,-1.8565881252288818,0.9659115672111511
314.5728,-1.6416572332382202,-0.7409392595291138,11.479060173034668,1.1225451231002808,-1.5316355228424072,0.951785683631897
314.5895,-1.4677703380584717,-3.690234661102295,8.83408260345459,0.8281277418136597,-1.2840256690979004,-0.6725569367408752
314.6062,-2.5698113441467285,-1.358542799949646,9.2286376953125,0.4404519200325012,-1.2639715671539307,-2.2434580326080322
314.6228,-3.0312814712524414,2.271646022796631,11.306641578674316,0.32597723603248596,-1.155545949935913,-1.998486876487732
314.6395,-2.186903238296509,4.552575588226318,11.99526596069336,0.5049428939819336,-0.9658220410346985,-0.44278720021247864
314.6562,-1.3117526769638062,2.5939130783081055,11.271296501159668,0.6299490332603455,-0.8340687155723572,1.004145622253418
314.6728,-0.30986106395721436,-0.30120787024497986,9.6586332321167,0.5693110823631287,-0.8137566447257996,1.0735481977462769
314.6895,0.04830653965473175,-2.165395498275757,9.817124366760254,0.4514211416244507,-0.8440214991569519,0.08956444263458252
314.7062,-0.4782688617706299,-1.0463963747024536,9.913017272949219,0.3501910865306854,-0.8412517309188843,-0.9379675388336182
314.7228,-1.1717097759246826,0.8372613191604614,10.022531509399414,0.2914639413356781,-0.8410242795944214,-1.0924112796783447
314.7395,-1.3628439903259277,1.3419573307037354,10.205910682678223,0.29881682991981506,-0.83718341588974,-0.7711638808250427
314.7562,-1.3603564500808716,0.9234077334403992,10.155133247375488,0.30762964487075806,-0.813951313495636,-0.48615917563438416
314.7728,-1.2281492948532104,0.41603362560272217,9.946971893310547,0.2767504155635834,-0.7887894511222839,-0.446795791387558
314.7895,-1.3914504051208496,0.7641667723655701,9.32150936126709,0.23569424450397491,-0.805829644203186,-0.5347214341163635
314.8062,-1.452974796295166,1.046040415763855,9.201136589050293,0.19616585969924927,-0.8145714998245239,-0.5565962791442871
314.8228,-1.7784154415130615,1.351190209388733,9.70324993133545,0.19400200247764587,-0.8245692849159241,-0.5179731845855713
314.8395,-2.040700912475586,1.1744433641433716,10.270525932312012,0.19212713837623596,-0.8044589161872864,-0.3221317529678345
314.8562,-2.230653762817383,0.45631441473960876,10.63714599609375,0.18974120914936066,-0.768843948841095,-0.20647770166397095
314.8728,-2.3435139656066895,0.25219181180000305,10.413712501525879,0.19271497428417206,-0.7339494824409485,-0.16463899612426758
314.8895,-2.317758798599243,0.1924232840538025,10.034594535827637,0.21298453211784363,-0.7252874374389648,-0.1396312564611435
314.9062,-2.4508678913116455,-0.008006534539163113,10.012306213378906,0.2259548455476761,-0.7164647579193115,-0.2249721735715866
314.9228,-2.3504834175109863,0.15188971161842346,10.054784774780273,0.21863621473312378,-0.714801549911499,-0.37931445240974426
314.9395,-1.968014121055603,-0.015153656713664532,10.174452781677246,0.21564392745494843,-0.7134944200515747,-0.5047454833984375
314.9562,-1.3819245100021362,0.002862089779227972,9.999470710754395,0.20801864564418793,-0.7560449838638306,-0.644688069820404
314.9728,-0.605828583240509,0.4706013798713684,9.802188873291016,0.18522940576076508,-0.8454638719558716,-0.7275637984275818
314.9895,-0.507500946521759,1.602921724319458,9.55323600769043,0.1643112450838089,-0.9641786217689514,-0.6079905033111572
315.0062,-0.6944887638092041,2.640322685241699,9.528032302856445,0.14598967134952545,-1.1199418306350708,-0.3218207061290741
315.0228,-0.5440735816955566,2.6707942485809326,10.105195045471191,0.1208607628941536,-1.2708171606063843,0.009563405998051167
315.0395,-0.8380854725837708,2.2736761569976807,10.547041893005371,0.0983600839972496,-1.4212630987167358,0.15258751809597015
315.0562,-0.9782975316047668,1.5000609159469604,10.75235652923584,0.08743457496166229,-1.5816413164138794,0.24843882024288177
315.0728,-0.8778958916664124,0.11275410652160645,10.572093963623047,0.08083199709653854,-1.7788358926773071,0.1645650714635849
315.0895,-0.919414758682251,-0.04089929163455963,11.657875061035156,0.0414755642414093,-1.9652104377746582,-0.04747031629085541
315.1062,-0.14240747690200806,0.06839035451412201,12.526945114135742,-0.03891874849796295,-2.164292097091675,-0.189530149102211
315.1228,0.5398582816123962,-0.29250210523605347,13.346795082092285,-0.11674728989601135,-2.360110282897949,-0.04646316543221474
315.1395,1.7197926044464111,-1.12093985080719,13.243268966674805,-0.14664994180202484,-2.563276767730713,0.14807136356830597
315.1562,2.0405433177948,-3.299194097518921,13.933794021606445,-0.10192517936229706,-2.740673542022705,0.372474730014801
315.1728,2.8517279624938965,-5.774535179138184,14.105937004089355,-0.05232914909720421,-2.8379130363464355,0.09498569369316101
315.1895,1.4557976722717285,-4.936568260192871,13.436178207397461,-0.18805082142353058,-2.929499387741089,-0.8211070895195007
315.2062,-3.1453213691711426,-0.3359813690185547,12.119364738464355,-0.5559675097465515,-3.0069165229797363,-1.6428786516189575
315.2228,-4.749391555786133,2.7573494911193848,12.313119888305664,-0.7407856583595276,-3.0445313453674316,-1.8715510368347168
315.2395,-4.282153606414795,1.807483196258545,14.214668273925781,-0.49618247151374817,-2.8085877895355225,-1.5295093059539795
315.2562,-8.259003639221191,-0.047862861305475235,13.746550559997559,-0.12367928773164749,-2.285586357116699,-0.5739514827728271
315.2728,-7.284603595733643,1.1113958358764648,10.125604629516602,-0.3173477351665497,-2.1692559719085693,-0.5588759183883667
315.2895,-7.879228591918945,2.051973819732666,9.16357421875,-0.6233695149421692,-1.5857748985290527,-0.8879103660583496
315.3062,-3.934081792831421,1.82438063621521,8.352984428405762,-0.649559736251831,-0.7918144464492798,-1.2803488969802856
315.3228,-3.9339988231658936,1.4384418725967407,7.64711856842041,-0.46301987767219543,-0.015665706247091293,-1.0832483768463135
315.3395,-5.075383186340332,2.134624481201172,6.379225254058838,-0.29710814356803894,0.6798185706138611,-0.38152042031288147
315.3562,-6.119323253631592,1.9341108798980713,5.443044662475586,-0.21120648086071014,1.385157585144043,0.15127919614315033
315.3728,-5.84475040435791,1.6533690690994263,5.224337577819824,-0.23527853190898895,2.083725690841675,0.4363630414009094
315.3895,-5.391546726226807,0.7520151734352112,5.328558444976807,-0.3747290372848511,2.746534824371338,0.4902595281600952
315.4062,-6.045261859893799,0.525387704372406,6.264834880828857,-0.6294023990631104,3.4049525260925293,0.5367586612701416
315.4228,-6.287391185760498,0.018271012231707573,6.7563958168029785,-0.8479594588279724,3.978604793548584,0.4840582013130188
315.4395,-6.253726005554199,0.4591265916824341,6.52890157699585,-0.8885764479637146,4.469944477081299,0.3086511790752411
315.4562,-6.498660564422607,0.3369351923465729,8.143400192260742,-0.7714515328407288,4.909204483032227,0.33584064245224
315.4728,-7.480224132537842,3.2780160903930664,7.47323751449585,-0.5289148688316345,5.097461700439453,0.7268915176391602
315.4895,-5.84877347946167,0.7343024611473083,9.211816787719727,-0.15473207831382751,5.454566955566406,1.3508648872375488
315.5062,-6.09562873840332,-0.7541192770004272,7.508670330047607,-0.2947416305541992,5.521749973297119,1.3647139072418213
315.5228,-6.497286796569824,-0.27068138122558594,9.727424621582031,-0.1452702283859253,5.579270362854004,1.123524785041809
315.5395,-6.21519660949707,-0.7295763492584229,11.708786964416504,-0.06837581098079681,5.685088634490967,0.9941316246986389
315.5562,-5.611027240753174,-0.42766058444976807,12.87252140045166,-0.13372813165187836,5.719100475311279,0.6462190747261047
315.5728,-5.288267135620117,1.2918450832366943,13.66334342956543,-0.040904466062784195,5.607547283172607,0.3809666335582733
315.5895,-4.900135040283203,3.3093338012695312,12.779695510864258,0.056036725640296936,5.266628742218018,0.8353413343429565
315.6062,-4.569211483001709,3.449190378189087,11.979355812072754,0.13469171524047852,4.71746301651001,1.6250401735305786
315.6228,-4.9760823249816895,1.8193731307983398,11.573518753051758,0.29350659251213074,4.05017614364624,2.280787706375122
315.6395,-6.286678314208984,-0.160587877035141,10.105975151062012,0.5623251795768738,3.294771432876587,2.4203896522521973
315.6562,-4.305972099304199,-1.8044155836105347,5.491308689117432,0.7878846526145935,2.120903491973877,1.4799268245697021
315.6728,-3.3715903759002686,-0.7158331274986267,4.2117462158203125,0.8792399764060974,0.5870936512947083,0.21479418873786926
315.6895,-3.9851722717285156,1.9414764642715454,5.3459343910217285,0.6352316737174988,-0.7092272043228149,-0.43186208605766296
315.7062,-4.999825477600098,3.418844699859619,6.849380970001221,0.4818553030490875,-1.691457748413086,-0.07648278027772903
315.7228,-1.6457395553588867,1.626922845840454,9.287480354309082,0.4322083592414856,-2.181143283843994,0.6516924500465393
315.7395,4.703744888305664,-2.46348237991333,13.428956031799316,0.4016374945640564,-1.659231185913086,1.367806077003479
315.7562,6.014601230621338,-2.2372190952301025,16.650665283203125,0.518444836139679,-1.0252041816711426,2.2743961811065674
315.7728,-2.438178300857544,-1.701912760734558,15.981367111206055,0.5635817646980286,-1.4936161041259766,3.3664422035217285
315.7895,-1.21293044090271,-5.122178077697754,11.749162673950195,0.6667340397834778,-1.7930275201797485,3.2349119186401367
315.8062,-1.718990445137024,-4.502386569976807,7.88704252243042,0.8180649876594543,-1.7976783514022827,2.0383386611938477
315.8228,-2.8595144748687744,-0.6425181031227112,7.300170421600342,0.9179253578186035,-1.8518468141555786,0.5436344742774963
315.8395,-4.607285976409912,3.567025661468506,9.881531715393066,0.9582156538963318,-1.848212480545044,0.05435100570321083
315.8562,-3.034324884414673,2.431638240814209,12.181451797485352,0.9832248687744141,-1.6211532354354858,0.7789319753646851
315.8728,-1.9766727685928345,-1.627785325050354,11.651907920837402,0.8920623660087585,-1.3120375871658325,0.5243548154830933
315.8895,-1.8133597373962402,-1.7447428703308105,9.415922164916992,0.6833702325820923,-1.2159987688064575,-0.7304733991622925
315.9062,-1.7151076793670654,-0.4194125235080719,9.990745544433594,0.45037710666656494,-1.1849406957626343,-1.4298655986785889
315.9228,-1.7991869449615479,1.6609545946121216,11.107867240905762,0.4255724549293518,-1.0858235359191895,-1.1739479303359985
315.9395,-1.838067889213562,3.6067988872528076,11.01587200164795,0.5297957062721252,-0.9411395788192749,-0.05536404624581337
315.9562,-1.086859941482544,1.4732040166854858,10.239741325378418,0.6533850431442261,-0.845166802406311,0.8357867002487183
315.9729,-0.5196422934532166,-1.0290617942810059,9.87617301940918,0.5151054859161377,-0.8438631892204285,0.5872922539710999
315.9895,-0.5875414609909058,-1.7013163566589355,10.177688598632812,0.34051546454429626,-0.84855055809021,-0.3995240032672882
316.0062,-1.18037748336792,-0.3331108093261719,10.289373397827148,0.27598458528518677,-0.8088972568511963,-1.0299469232559204
316.0229,-1.4270447492599487,0.670821487903595,10.218475341796875,0.2677254378795624,-0.8064725399017334,-0.8656299710273743
316.0395,-1.4489954710006714,0.9886944890022278,10.111676216125488,0.28170710802078247,-0.7977543473243713,-0.5004346370697021
316.0562,-1.4834938049316406,0.6839553713798523,9.957186698913574,0.2767252027988434,-0.7692477703094482,-0.2852955460548401
316.0729,-1.4115221500396729,0.06515886634588242,9.502530097961426,0.24584472179412842,-0.7615509629249573,-0.34772318601608276
316.0895,-1.572077989578247,-0.38237524032592773,9.803433418273926,0.1810063272714615,-0.7670379877090454,-0.5777860879898071
316.1062,-1.978245735168457,0.42510974407196045,9.945635795593262,0.12039844691753387,-0.7636480331420898,-0.8169844150543213
316.1229,-2.3697056770324707,1.2331409454345703,10.3516263961792,0.17358922958374023,-0.7379849553108215,-0.631655752658844
316.1395,-2.424492120742798,0.9377895593643188,10.350544929504395,0.2019795924425125,-0.707392692565918,-0.3441786468029022
316.1562,-2.2943389415740967,0.5256486535072327,10.30132007598877,0.16722847521305084,-0.6752906441688538,-0.21764320135116577
316.1729,-2.0844762325286865,0.7373735904693604,10.078665733337402,0.18962250649929047,-0.6004713773727417,-0.13463564217090607
316.1895,-2.3967742919921875,1.1531122922897339,9.691615104675293,0.1973494589328766,-0.5786277651786804,-0.13802678883075714
316.2062,-2.2072486877441406,1.284159779548645,9.400877952575684,0.20148420333862305,-0.5786195993423462,-0.0940001904964447
316.2229,-1.9443509578704834,0.8448941111564636,9.331114768981934,0.1988314986228943,-0.6049819588661194,-0.03815248981118202
316.2395,-1.4730273485183716,0.2286415994167328,9.688324928283691,0.18086443841457367,-0.6665124297142029,-0.05935681238770485
316.2562,-0.7924873232841492,-0.25505176186561584,10.281249046325684,0.15422140061855316,-0.7620487809181213,-0.16758295893669128
316.2729,0.03896178677678108,-0.3593071401119232,10.336488723754883,0.14255820214748383,-0.896592378616333,-0.29930880665779114
316.2895,-0.35615113377571106,0.11381319165229797,9.928903579711914,0.11237829178571701,-1.0746111869812012,-0.38097161054611206
316.3062,-0.5224325656890869,0.6283925771713257,9.84325122833252,0.038690291345119476,-1.2749055624008179,-0.4089628756046295
316.3229,-0.5829426050186157,1.522446870803833,10.581355094909668,-0.03684735670685768,-1.461526870727539,-0.2406858503818512
316.3395,-0.5904892683029175,1.6834337711334229,11.249999046325684,-0.07287240773439407,-1.6336522102355957,0.111725814640522
316.3562,-0.7882032990455627,1.2392278909683228,11.35782241821289,-0.10535304248332977,-1.8069578409194946,0.39199814200401306
316.3729,-0.7739102244377136,0.5589981079101562,11.487990379333496,-0.12323793768882751,-1.9872645139694214,0.48210594058036804
316.3895,-0.5653132200241089,-0.004257639870047569,11.743815422058105,-0.16310356557369232,-2.1452114582061768,0.3564998209476471
316.4062,-0.13577993214130402,-0.12895341217517853,12.590022087097168,-0.23009228706359863,-2.3444008827209473,0.2649286687374115
316.4229,0.6885606646537781,-1.0452879667282104,13.044222831726074,-0.29838332533836365,-2.499168872833252,0.25212472677230835
316.4395,1.015958309173584,-2.9302778244018555,13.525808334350586,-0.26646092534065247,-2.640453577041626,0.29283469915390015
316.4562,2.5153653621673584,-4.508800029754639,13.909037590026855,-0.2594250738620758,-2.7244486808776855,-0.07302386313676834
316.4729,2.838355779647827,-4.033168792724609,13.13729476928711,-0.4131592810153961,-2.8201818466186523,-0.9744597673416138
316.4895,-0.9811235070228577,-0.07562153041362762,11.691271781921387,-0.6587494611740112,-2.9533491134643555,-1.6106812953948975
316.5062,-4.684305667877197,3.6561408042907715,11.162673950195312,-0.8538442254066467,-3.100545644760132,-1.6124858856201172
316.5229,-5.068472862243652,3.592108964920044,13.27941608428955,-0.6904816031455994,-3.063263177871704,-0.9175106287002563
316.5395,-6.6852545738220215,0.4034581184387207,13.760391235351562,-0.22517023980617523,-2.6802263259887695,-0.05009373649954796
316.5562,-7.246485233306885,-1.0084224939346313,12.032371520996094,-0.177869513630867,-2.2690813541412354,0.288373202085495
316.5729,-7.166533946990967,-0.021398019045591354,9.779115676879883,-0.4453771412372589,-1.8696223497390747,-0.44714564085006714
316.5895,-6.059139728546143,0.6287127137184143,8.213279724121094,-0.6011925339698792,-1.1626700162887573,-1.0260891914367676
316.6062,-3.561497211456299,0.5234678387641907,7.440077304840088,-0.48829978704452515,-0.44223567843437195,-1.3143318891525269
316.6229,-4.935910224914551,1.3193879127502441,6.3142991065979,-0.3283209800720215,0.25832781195640564,-0.9137073159217834
316.6395,-6.105779647827148,1.7055834531784058,5.628180027008057,-0.1905238777399063,0.9732484817504883,-0.2624833583831787
316.6562,-7.264950275421143,2.000694513320923,4.868529319763184,-0.13061247766017914,1.7233377695083618,0.23496516048908234
316.6729,-6.440811634063721,0.9404577612876892,5.388132095336914,-0.13199900090694427,2.4261772632598877,0.437863290309906
316.6895,-5.963457107543945,1.1602168083190918,6.185722827911377,-0.2840591371059418,3.1317663192749023,0.6204118132591248
316.7062,-6.0521345138549805,0.5747452974319458,6.707300186157227,-0.3345533013343811,3.7533206939697266,0.8690295219421387
316.7229,-5.712385654449463,0.527866005897522,6.426268100738525,-0.4487859904766083,4.192533493041992,0.8986726999282837
316.7395,-6.999255657196045,0.33887091279029846,6.9161057472229,-0.5122830271720886,4.578207492828369,1.1038233041763306
316.7562,-6.882924556732178,0.6793692111968994,7.268636226654053,-0.5462419986724854,4.927648067474365,1.085773229598999
316.7729,-6.671383380889893,1.5916682481765747,8.113109588623047,-0.4510258436203003,5.040283679962158,1.4144126176834106
316.7895,-6.145850658416748,-1.0150994062423706,8.557534217834473,-0.3367508351802826,5.311862945556641,1.5348423719406128
316.8062,-6.326923847198486,-0.8905231356620789,9.000186920166016,-0.567533016204834,5.420494079589844,0.9221675992012024
316.8229,-5.993778228759766,-0.14683853089809418,11.165939331054688,-0.5079547762870789,5.54530143737793,0.4905101954936981
316.8395,-5.945307731628418,0.8873152732849121,12.052828788757324,-0.4630205035209656,5.689907073974609,0.48023104667663574
316.8562,-6.095223426818848,1.9035850763320923,11.939820289611816,-0.32320448756217957,5.645721435546875,0.8867388963699341
316.8729,-5.627033233642578,2.4983301162719727,12.139945983886719,-0.13533133268356323,5.440382957458496,1.4250893592834473
316.8895,-5.265229225158691,1.6914191246032715,12.759553909301758,-0.03560708835721016,5.137315273284912,2.170682907104492
316.9062,-5.308015823364258,0.25845858454704285,12.863555908203125,0.10980214923620224,4.7534332275390625,2.4557290077209473
316.9229,-5.945703983306885,-0.8049712181091309,11.628318786621094,0.2641255557537079,4.189940452575684,2.25266170501709
316.9395,-5.881862163543701,-1.4270942211151123,8.353611946105957,0.5349860787391663,3.3222577571868896,1.4735888242721558
316.9562,-3.6453585624694824,-0.45899704098701477,4.033891201019287,0.8646111488342285,1.8010859489440918,0.5447328686714172
316.9729,-2.754138231277466,1.0809754133224487,3.622629404067993,0.7538906931877136,-0.007293642498552799,-0.08209021389484406
316.9895,-4.257594108581543,4.5249528884887695,5.473483562469482,0.487368106842041,-1.2816202640533447,-0.05737217143177986
317.0062,-3.5485920906066895,5.196610927581787,7.691318988800049,0.42096227407455444,-2.102482795715332,0.7807859182357788
317.0229,2.677173137664795,0.9843817353248596,12.435616493225098,0.39556384086608887,-1.9678958654403687,1.6904033422470093
317.0395,6.144345760345459,-2.5011985301971436,15.956690788269043,0.5568863153457642,-1.1153812408447266,2.7291579246520996
317.0562,1.8686848878860474,-4.242948055267334,15.620983123779297,0.6739410161972046,-0.9568163752555847,3.496351957321167
317.0729,-2.154862880706787,-5.4100422859191895,13.516085624694824,0.6878330111503601,-1.5502567291259766,3.1209380626678467
317.0895,-1.8254988193511963,-6.9762492179870605,10.36939525604248,0.841309130191803,-1.74043607711792,1.9837908744812012
317.1062,-2.2732462882995605,-4.14890193939209,7.797853469848633,0.9791113138198853,-1.8198052644729614,0.37064889073371887
317.1229,-3.9647152423858643,1.2080029249191284,8.730588912963867,0.9629420638084412,-1.8807895183563232,-0.8431718349456787
317.1395,-3.7530503273010254,3.8217477798461914,10.712854385375977,0.9522669315338135,-1.6622945070266724,-0.1502782255411148
317.1562,-1.5239918231964111,1.2402071952819824,11.820215225219727,0.8852055072784424,-1.3295451402664185,0.3510715067386627
317.1729,-1.6323466300964355,-0.5650507807731628,10.262430191040039,0.7548531889915466,-1.0718761682510376,-0.21441273391246796
317.1895,-1.9887700080871582,0.08916078507900238,9.988640785217285,0.5441576242446899,-1.0106526613235474,-0.5834906697273254
317.2062,-1.8622115850448608,1.9878507852554321,10.807368278503418,0.5057839155197144,-0.9424951672554016,-0.136151984333992
317.2229,-1.6118236780166626,1.9530231952667236,11.024188995361328,0.5789927840232849,-0.7875649929046631,0.6237874031066895
317.2395,-1.0323930978775024,0.2920680642127991,10.580350875854492,0.5317344665527344,-0.697475254535675,0.9046499133110046
317.2562,-0.0035243849270045757,-1.1864964962005615,10.323188781738281,0.47901245951652527,-0.6798673272132874,0.4517151713371277
317.2729,-0.3165219724178314,-0.9296306371688843,10.19587516784668,0.4145403504371643,-0.6685556173324585,-0.3668809235095978
317.2895,-1.302500605583191,0.23714059591293335,10.129803657531738,0.3429851233959198,-0.6547682285308838,-0.6326824426651001
317.3062,-1.4652503728866577,0.2660340666770935,10.441519737243652,0.30458906292915344,-0.6222222447395325,-0.5660957098007202
317.3229,-1.463379144668579,0.07079977542161942,10.652643203735352,0.308929979801178,-0.5749145746231079,-0.51482754945755
317.3395,-0.9917242527008057,-0.26378726959228516,10.418684005737305,0.2920266091823578,-0.5220131874084473,-0.5538586378097534
317.3562,-0.8614640831947327,-0.2791653871536255,9.95979118347168,0.23680369555950165,-0.4930557906627655,-0.6530948281288147
317.3729,-0.7421116232872009,0.14189580082893372,9.456379890441895,0.18151235580444336,-0.49127674102783203,-0.7415338754653931
317.3895,-0.8655663132667542,0.9023633003234863,9.28821849822998,0.17146232724189758,-0.5206197500228882,-0.734978199005127
317.4062,-1.046892523765564,1.4876395463943481,9.50579833984375,0.17003796994686127,-0.5564669370651245,-0.5645928978919983
317.4229,-1.180307388305664,1.4446531534194946,9.890914916992188,0.162118598818779,-0.5732858777046204,-0.3397548794746399
317.4395,-1.1470615863800049,0.9882226586341858,10.066686630249023,0.16063053905963898,-0.570602536201477,-0.1540500670671463
317.4562,-1.0524365901947021,0.5186766386032104,10.073540687561035,0.13712520897388458,-0.5813525319099426,-0.1074882298707962
317.4729,-1.0284976959228516,0.5605599284172058,10.046712875366211,0.12534427642822266,-0.6095032691955566,-0.0962529107928276
317.4895,-1.2535426616668701,0.6671726107597351,9.932598114013672,0.13007201254367828,-0.6307136416435242,-0.029497437179088593
317.5062,-1.356851577758789,0.45272335410118103,9.853550910949707,0.11585299670696259,-0.6547974348068237,-0.021113231778144836
317.5229,-1.3284825086593628,-0.018708568066358566,9.93399429321289,0.09891185164451599,-0.6795057058334351,-0.0930376946926117
317.5395,-1.1433963775634766,-0.10032970458269119,10.144807815551758,0.07754426449537277,-0.7228133082389832,-0.2531701326370239
317.5562,-0.8918682336807251,-0.36306190490722656,10.37862777709961,0.07418782263994217,-0.7805723547935486,-0.339056134223938
317.5729,-0.5125246644020081,-0.37003815174102783,10.164278030395508,0.06618304550647736,-0.8622927069664001,-0.41157910227775574
317.5895,-0.638431966304779,0.3189728856086731,9.823643684387207,0.04002966731786728,-0.9700394868850708,-0.33046165108680725
317.6062,-0.8208826780319214,1.0091997385025024,9.424269676208496,0.020296011120080948,-1.0878005027770996,-0.10441731661558151
317.6229,-0.9163683652877808,0.8416967391967773,9.211441040039062,0.005860359873622656,-1.2118117809295654,0.12975674867630005
317.6396,-0.940176784992218,0.8118838667869568,9.305205345153809,-0.016430826857686043,-1.3300137519836426,0.20762090384960175
317.6562,-1.1172001361846924,0.9197075366973877,9.611745834350586,-0.051130324602127075,-1.4661208391189575,0.22672483325004578
317.6729,-1.2109946012496948,1.4219778776168823,9.894864082336426,-0.08381245285272598,-1.5825977325439453,0.3139978051185608
317.6896,-1.7838289737701416,1.7624541521072388,10.507793426513672,-0.11874110996723175,-1.7234078645706177,0.456315815448761
317.7062,-1.70211923122406,1.1036150455474854,11.336210250854492,-0.16271209716796875,-1.8476275205612183,0.5006478428840637
317.7229,-1.2892082929611206,0.4241141080856323,11.97846794128418,-0.24412833154201508,-1.9658074378967285,0.3344433605670929
317.7396,-0.9885635375976562,-0.49326780438423157,12.512317657470703,-0.26666969060897827,-2.0670390129089355,0.2689497470855713
317.7562,-0.7696667313575745,-1.284771203994751,12.271769523620605,-0.2568799555301666,-2.2272984981536865,0.24505208432674408
317.7729,-0.5546422004699707,-2.236661195755005,12.829618453979492,-0.2906971871852875,-2.3333451747894287,0.33610281348228455
317.7896,-0.12128487974405289,-3.4067440032958984,12.675874710083008,-0.33428850769996643,-2.3721511363983154,0.26103106141090393
317.8062,-0.6429261565208435,-3.5409774780273438,11.772116661071777,-0.3024705648422241,-2.4258275032043457,0.14491170644760132
317.8229,-2.255585193634033,-2.7146637439727783,10.675780296325684,-0.29427391290664673,-2.442375898361206,-0.2601623833179474
317.8396,-4.725032329559326,-1.379229187965393,10.372782707214355,-0.26860615611076355,-2.4981472492218018,-0.808093786239624
317.8562,-5.364975452423096,0.09767893701791763,10.463849067687988,-0.21999959647655487,-2.6048810482025146,-1.5221859216690063
317.8729,-5.905354976654053,1.1667262315750122,10.986897468566895,-0.19535893201828003,-2.5438389778137207,-1.8212870359420776
